"","ID","Sex","Age","group_sk_fl_neu","date","expName","psychopyVersion","OS","frameRate","test_chose_targ.x","test_chose_targ.y","test_chose_targ.leftButton","test_chose_targ.midButton","test_chose_targ.rightButton","test_chose_targ.time","test_chose_targ.corr","test_chose_targ.clicked_name","test_chose_targ.clicked_pos","test_loop.thisRepN","test_loop.thisTrialN","test_loop.thisN","test_loop.thisIndex","test_loop.ran","test_indicator","stim_name","stim_id","stim_descr","stim_fav","stim_freq","matrix_type","taget_posititon","chose_targ.x","chose_targ.y","chose_targ.leftButton","chose_targ.midButton","chose_targ.rightButton","chose_targ.time","chose_targ.corr","chose_targ.clicked_name","chose_targ.clicked_pos","main_loop.thisRepN","main_loop.thisTrialN","main_loop.thisN","main_loop.thisIndex","main_loop.ran","test_loop.thisTriAL2N","main_loop.thisTriAL2N"
"1",1,"f",21,"neu","2024-04-18_18h17.05.085","Visual_search_sk","2023.2.3","MacIntel",58.82352941,NA,NA,NA,NA,NA,NA,NA,"","",NA,NA,NA,NA,NA,11,"settings",31,"изменить настройки устройства",1,1,1,"[-0.19167,0.19167]",-153,194,1,0,0,1.805,1,"target","[-0.19167,0.19167]",0,0,0,0,1,NA,NA
"2",1,"f",21,"neu","2024-04-18_18h17.05.085","Visual_search_sk","2023.2.3","MacIntel",58.82352941,NA,NA,NA,NA,NA,NA,NA,"","",NA,NA,NA,NA,NA,88,"compass",10,"узнать, в какой стороне света Юг",0,0,3,"[0.19353000000000004,0.0018600000000000283]",180,30,1,0,0,3.44,1,"target","[0.19353000000000004,0.0018600000000000283]",1,0,1,0,1,NA,NA
"3",1,"f",21,"neu","2024-04-18_18h17.05.085","Visual_search_sk","2023.2.3","MacIntel",58.82352941,NA,NA,NA,NA,NA,NA,NA,"","",NA,NA,NA,NA,NA,10,"time",35,"посмотреть, сколько времени во Владивостоке",1,1,1,"[0.19167,0]",166,-5,1,0,0,1.561,1,"target","[0.19167,0]",3,0,3,0,1,NA,NA
"4",1,"f",21,"neu","2024-04-18_18h17.05.085","Visual_search_sk","2023.2.3","MacIntel",58.82352941,NA,NA,NA,NA,NA,NA,NA,"","",NA,NA,NA,NA,NA,2,"train",36,"приобрести билеты на поезд",1,0,1,"[0.19167,-0.19167]",173,-168,1,0,0,3.244,1,"target","[0.19167,-0.19167]",4,0,4,0,1,NA,NA
"5",1,"f",21,"neu","2024-04-18_18h17.05.085","Visual_search_sk","2023.2.3","MacIntel",58.82352941,NA,NA,NA,NA,NA,NA,NA,"","",NA,NA,NA,NA,NA,44,"calendar",7,"узнать на какой день недели выпадает мой день рождения",1,1,2,"[-0.09443999999999997,0.09723000000000004]",-86,90,1,0,0,3.094,1,"target","[-0.09443999999999997,0.09723000000000004]",5,0,5,0,1,NA,NA
"6",1,"f",21,"neu","2024-04-18_18h17.05.085","Visual_search_sk","2023.2.3","MacIntel",58.82352941,NA,NA,NA,NA,NA,NA,NA,"","",NA,NA,NA,NA,NA,68,"phone",28,"сделать телефонный звонок",1,1,3,"[0.19353000000000004,0.19353000000000004]",178,169,1,0,0,3.007,1,"target","[0.19353000000000004,0.19353000000000004]",6,0,6,0,1,NA,NA
"7",1,"f",21,"neu","2024-04-18_18h17.05.085","Visual_search_sk","2023.2.3","MacIntel",58.82352941,NA,NA,NA,NA,NA,NA,NA,"","",NA,NA,NA,NA,NA,24,"ruler",30,"измерить длину предмета",0,0,1,"[0,-0.19167]",1,-193,1,0,0,1.945,1,"target","[0,-0.19167]",8,0,8,0,1,NA,NA
"8",1,"f",21,"neu","2024-04-18_18h17.05.085","Visual_search_sk","2023.2.3","MacIntel",58.82352941,NA,NA,NA,NA,NA,NA,NA,"","",NA,NA,NA,NA,NA,70,"music",25,"послушать музыку",1,1,3,"[0.19353000000000004,0.19353000000000004]",175,179,1,0,0,1.574,1,"target","[0.19353000000000004,0.19353000000000004]",9,0,9,0,1,NA,NA
"9",1,"f",21,"neu","2024-04-18_18h17.05.085","Visual_search_sk","2023.2.3","MacIntel",58.82352941,NA,NA,NA,NA,NA,NA,NA,"","",NA,NA,NA,NA,NA,57,"documents",13,"открыть сохраненные офисные документы",0,0,2,"[0.09723000000000004,0.28890000000000005]",95,266,1,0,0,2.342,1,"target","[0.09723000000000004,0.28890000000000005]",10,0,10,0,1,NA,NA
"10",1,"f",21,"neu","2024-04-18_18h17.05.085","Visual_search_sk","2023.2.3","MacIntel",58.82352941,NA,NA,NA,NA,NA,NA,NA,"","",NA,NA,NA,NA,NA,80,"download",14,"открыть скачанный файл",0,0,3,"[-0.18980999999999998,-0.38148]",-175,-350,1,0,0,1.991,1,"target","[-0.18980999999999998,-0.38148]",11,0,11,0,1,NA,NA
"11",1,"f",21,"neu","2024-04-18_18h17.05.085","Visual_search_sk","2023.2.3","MacIntel",58.82352941,NA,NA,NA,NA,NA,NA,NA,"","",NA,NA,NA,NA,NA,40,"maps",22,"узнать, где находится ближайший продуктовый магазин",1,1,2,"[0.09723000000000004,0.28890000000000005]",93,258,1,0,0,3.06,1,"target","[0.09723000000000004,0.28890000000000005]",13,0,13,0,1,NA,NA
"12",1,"f",21,"neu","2024-04-18_18h17.05.085","Visual_search_sk","2023.2.3","MacIntel",58.82352941,NA,NA,NA,NA,NA,NA,NA,"","",NA,NA,NA,NA,NA,31,"calculator",6,"разделить число на 3",1,1,2,"[0.09723000000000004,0.28890000000000005]",93,256,1,0,0,1.51,1,"target","[0.09723000000000004,0.28890000000000005]",14,0,14,0,1,NA,NA
"13",1,"f",21,"neu","2024-04-18_18h17.05.085","Visual_search_sk","2023.2.3","MacIntel",58.82352941,NA,NA,NA,NA,NA,NA,NA,"","",NA,NA,NA,NA,NA,66,"messager",23,"отправить сообщение",1,1,3,"[0.0018600000000000283,0.19353000000000004]",4,179,1,0,0,5.073,1,"target","[0.0018600000000000283,0.19353000000000004]",15,0,15,0,1,NA,NA
"14",1,"f",21,"neu","2024-04-18_18h17.05.085","Visual_search_sk","2023.2.3","MacIntel",58.82352941,NA,NA,NA,NA,NA,NA,NA,"","",NA,NA,NA,NA,NA,32,"contacts",11,"найти номер телефона коллеги",1,0,2,"[-0.09443999999999997,-0.09443999999999997]",-73,-78,1,0,0,6.345,1,"target","[-0.09443999999999997,-0.09443999999999997]",16,0,16,0,1,NA,NA
"15",1,"f",21,"neu","2024-04-18_18h17.05.085","Visual_search_sk","2023.2.3","MacIntel",58.82352941,NA,NA,NA,NA,NA,NA,NA,"","",NA,NA,NA,NA,NA,59,"wallet",39,"посмотреть свои скидочные и дебетовые карты",0,0,2,"[-0.28611,-0.28611]",-247,-248,1,0,0,4.961,1,"target","[-0.28611,-0.28611]",17,0,17,0,1,NA,NA
"16",1,"f",21,"neu","2024-04-18_18h17.05.085","Visual_search_sk","2023.2.3","MacIntel",58.82352941,NA,NA,NA,NA,NA,NA,NA,"","",NA,NA,NA,NA,NA,36,"weather",40,"узнать погоду на завтра",1,1,2,"[-0.09443999999999997,-0.28611]",-90,-251,1,0,0,3.277,1,"target","[-0.09443999999999997,-0.28611]",18,0,18,0,1,NA,NA
"17",1,"f",21,"neu","2024-04-18_18h17.05.085","Visual_search_sk","2023.2.3","MacIntel",58.82352941,NA,NA,NA,NA,NA,NA,NA,"","",NA,NA,NA,NA,NA,74,"email",16,"проверить электронную почту",1,1,3,"[0.38520000000000004,0.38520000000000004]",336,330,1,0,0,2.972,1,"target","[0.38520000000000004,0.38520000000000004]",19,0,19,0,1,NA,NA
"18",1,"f",21,"neu","2024-04-18_18h17.05.085","Visual_search_sk","2023.2.3","MacIntel",58.82352941,NA,NA,NA,NA,NA,NA,NA,"","",NA,NA,NA,NA,NA,30,"music",25,"послушать музыку",1,1,2,"[-0.28611,0.28890000000000005]",-256,253,1,0,0,1.777,1,"target","[-0.28611,0.28890000000000005]",20,0,20,0,1,NA,NA
"19",1,"f",21,"neu","2024-04-18_18h17.05.085","Visual_search_sk","2023.2.3","MacIntel",58.82352941,NA,NA,NA,NA,NA,NA,NA,"","",NA,NA,NA,NA,NA,4,"music",25,"послушать музыку",1,1,1,"[-0.19167,-0.19167]",-195,-175,1,0,0,1.146,1,"target","[-0.19167,-0.19167]",21,0,21,0,1,NA,NA
"20",1,"f",21,"neu","2024-04-18_18h17.05.085","Visual_search_sk","2023.2.3","MacIntel",58.82352941,NA,NA,NA,NA,NA,NA,NA,"","",NA,NA,NA,NA,NA,43,"notebook",26,"сделать заметку",1,0,2,"[0.28890000000000005,-0.28611]",272,-241,1,0,0,3.125,1,"target","[0.28890000000000005,-0.28611]",22,0,22,0,1,NA,NA
"21",1,"f",21,"neu","2024-04-18_18h17.05.085","Visual_search_sk","2023.2.3","MacIntel",58.82352941,NA,NA,NA,NA,NA,NA,NA,"","",NA,NA,NA,NA,NA,69,"settings",31,"изменить настройки устройства",1,1,3,"[-0.38148,-0.18980999999999998]",-350,-159,1,0,0,2.003,1,"target","[-0.38148,-0.18980999999999998]",23,0,23,0,1,NA,NA
"22",1,"f",21,"neu","2024-04-18_18h17.05.085","Visual_search_sk","2023.2.3","MacIntel",58.82352941,NA,NA,NA,NA,NA,NA,NA,"","",NA,NA,NA,NA,NA,63,"time",35,"посмотреть, сколько времени во Владивостоке",1,1,3,"[0.0018600000000000283,0.19353000000000004]",8,171,1,0,0,1.242,1,"target","[0.0018600000000000283,0.19353000000000004]",25,0,25,0,1,NA,NA
"23",1,"f",21,"neu","2024-04-18_18h17.05.085","Visual_search_sk","2023.2.3","MacIntel",58.82352941,NA,NA,NA,NA,NA,NA,NA,"","",NA,NA,NA,NA,NA,20,"air",1,"приобрести билеты на самолет",0,0,1,"[0.19167,0.19167]",170,148,1,0,0,3.127,1,"target","[0.19167,0.19167]",26,0,26,0,1,NA,NA
"24",1,"f",21,"neu","2024-04-18_18h17.05.085","Visual_search_sk","2023.2.3","MacIntel",58.82352941,NA,NA,NA,NA,NA,NA,NA,"","",NA,NA,NA,NA,NA,58,"dictaphone",12,"записать свой голос",0,0,2,"[0.28890000000000005,-0.28611]",252,-259,1,0,0,2.425,1,"target","[0.28890000000000005,-0.28611]",27,0,27,0,1,NA,NA
"25",1,"f",21,"neu","2024-04-18_18h17.05.085","Visual_search_sk","2023.2.3","MacIntel",58.82352941,NA,NA,NA,NA,NA,NA,NA,"","",NA,NA,NA,NA,NA,42,"time",35,"посмотреть, сколько времени во Владивостоке",1,1,2,"[0.28890000000000005,0.28890000000000005]",268,267,1,0,0,1.576,1,"target","[0.28890000000000005,0.28890000000000005]",28,0,28,0,1,NA,NA
"26",1,"f",21,"neu","2024-04-18_18h17.05.085","Visual_search_sk","2023.2.3","MacIntel",58.82352941,NA,NA,NA,NA,NA,NA,NA,"","",NA,NA,NA,NA,NA,38,"phone",28,"сделать телефонный звонок",1,1,2,"[0.28890000000000005,0.28890000000000005]",286,278,1,0,0,4.311,1,"target","[0.28890000000000005,0.28890000000000005]",29,0,29,0,1,NA,NA
"27",1,"f",21,"neu","2024-04-18_18h17.05.085","Visual_search_sk","2023.2.3","MacIntel",58.82352941,NA,NA,NA,NA,NA,NA,NA,"","",NA,NA,NA,NA,NA,50,"bank",3,"узнать курс доллара и купить его",0,1,2,"[0.28890000000000005,-0.09443999999999997]",271,-62,1,0,0,1.779,1,"target","[0.28890000000000005,-0.09443999999999997]",30,0,30,0,1,NA,NA
"28",1,"f",21,"neu","2024-04-18_18h17.05.085","Visual_search_sk","2023.2.3","MacIntel",58.82352941,NA,NA,NA,NA,NA,NA,NA,"","",NA,NA,NA,NA,NA,73,"taxi",34,"заказать такси",1,0,3,"[0.0018600000000000283,0.0018600000000000283]",-1,9,1,0,0,1.358,1,"target","[0.0018600000000000283,0.0018600000000000283]",31,0,31,0,1,NA,NA
"29",1,"f",21,"neu","2024-04-18_18h17.05.085","Visual_search_sk","2023.2.3","MacIntel",58.82352941,NA,NA,NA,NA,NA,NA,NA,"","",NA,NA,NA,NA,NA,28,"translator",37,"перевести текст",0,1,1,"[0.19167,0]",207,-18,1,0,0,1.73,1,"target","[0.19167,0]",32,0,32,0,1,NA,NA
"30",1,"f",21,"neu","2024-04-18_18h17.05.085","Visual_search_sk","2023.2.3","MacIntel",58.82352941,NA,NA,NA,NA,NA,NA,NA,"","",NA,NA,NA,NA,NA,7,"contacts",11,"найти номер телефона коллеги",1,0,1,"[0.19167,0.19167]",177,179,1,0,0,1.779,1,"target","[0.19167,0.19167]",33,0,33,0,1,NA,NA
"31",1,"f",21,"neu","2024-04-18_18h17.05.085","Visual_search_sk","2023.2.3","MacIntel",58.82352941,NA,NA,NA,NA,NA,NA,NA,"","",NA,NA,NA,NA,NA,5,"weather",40,"узнать погоду на завтра",1,1,1,"[-0.19167,0.19167]",-174,148,1,0,0,1.577,1,"target","[-0.19167,0.19167]",34,0,34,0,1,NA,NA
"32",1,"f",21,"neu","2024-04-18_18h17.05.085","Visual_search_sk","2023.2.3","MacIntel",58.82352941,NA,NA,NA,NA,NA,NA,NA,"","",NA,NA,NA,NA,NA,0,"camera",8,"сделать фотоснимок",1,1,1,"[-0.19167,0]",-161,-9,1,0,0,1.41,1,"target","[-0.19167,0]",35,0,35,0,1,NA,NA
"33",1,"f",21,"neu","2024-04-18_18h17.05.085","Visual_search_sk","2023.2.3","MacIntel",58.82352941,NA,NA,NA,NA,NA,NA,NA,"","",NA,NA,NA,NA,NA,18,"planner",29,"создать маркированный список планов на день",0,0,1,"[0,-0.19167]",-9,-169,1,0,0,2.643,1,"target","[0,-0.19167]",36,0,36,0,1,NA,NA
"34",1,"f",21,"neu","2024-04-18_18h17.05.085","Visual_search_sk","2023.2.3","MacIntel",58.82352941,NA,NA,NA,NA,NA,NA,NA,"","",NA,NA,NA,NA,NA,34,"gallery",19,"посмотреть сделанные фотографии",1,1,2,"[-0.09443999999999997,-0.28611]",-90,-252,1,0,0,2.627,1,"target","[-0.09443999999999997,-0.28611]",37,0,37,0,1,NA,NA
"35",1,"f",21,"neu","2024-04-18_18h17.05.085","Visual_search_sk","2023.2.3","MacIntel",58.82352941,NA,NA,NA,NA,NA,NA,NA,"","",NA,NA,NA,NA,NA,86,"metro",24,"открыть схему линий метро",0,0,3,"[-0.38148,-0.18980999999999998]",-351,-169,1,0,0,3.274,1,"target","[-0.38148,-0.18980999999999998]",38,0,38,0,1,NA,NA
"36",1,"f",21,"neu","2024-04-18_18h17.05.085","Visual_search_sk","2023.2.3","MacIntel",58.82352941,NA,NA,NA,NA,NA,NA,NA,"","",NA,NA,NA,NA,NA,37,"taxi",34,"заказать такси",1,0,2,"[0.09723000000000004,0.09723000000000004]",77,73,1,0,0,1.626,1,"target","[0.09723000000000004,0.09723000000000004]",39,0,39,0,1,NA,NA
"37",1,"f",21,"neu","2024-04-18_18h17.05.085","Visual_search_sk","2023.2.3","MacIntel",58.82352941,NA,NA,NA,NA,NA,NA,NA,"","",NA,NA,NA,NA,NA,84,"planner",29,"создать маркированный список планов на день",0,0,3,"[-0.38148,0.0018600000000000283]",-321,13,1,0,0,2.591,1,"target","[-0.38148,0.0018600000000000283]",40,0,40,0,1,NA,NA
"38",1,"f",21,"neu","2024-04-18_18h17.05.085","Visual_search_sk","2023.2.3","MacIntel",58.82352941,NA,NA,NA,NA,NA,NA,NA,"","",NA,NA,NA,NA,NA,78,"dictaphone",12,"записать свой голос",0,0,3,"[-0.38148,0.38520000000000004]",-337,355,1,0,0,2.958,1,"target","[-0.38148,0.38520000000000004]",41,0,41,0,1,NA,NA
"39",1,"f",21,"neu","2024-04-18_18h17.05.085","Visual_search_sk","2023.2.3","MacIntel",58.82352941,NA,NA,NA,NA,NA,NA,NA,"","",NA,NA,NA,NA,NA,82,"translator",37,"перевести текст",0,1,3,"[0.0018600000000000283,-0.38148]",-2,-340,1,0,0,3.308,1,"target","[0.0018600000000000283,-0.38148]",42,0,42,0,1,NA,NA
"40",1,"f",21,"neu","2024-04-18_18h17.05.085","Visual_search_sk","2023.2.3","MacIntel",58.82352941,NA,NA,NA,NA,NA,NA,NA,"","",NA,NA,NA,NA,NA,65,"calculator",6,"разделить число на 3",1,1,3,"[0.19353000000000004,0.38520000000000004]",186,341,1,0,0,2.607,1,"target","[0.19353000000000004,0.38520000000000004]",43,0,43,0,1,NA,NA
"41",1,"f",21,"neu","2024-04-18_18h17.05.085","Visual_search_sk","2023.2.3","MacIntel",58.82352941,NA,NA,NA,NA,NA,NA,NA,"","",NA,NA,NA,NA,NA,35,"settings",31,"изменить настройки устройства",1,1,2,"[0.28890000000000005,-0.28611]",264,-257,1,0,0,2.309,1,"target","[0.28890000000000005,-0.28611]",44,0,44,0,1,NA,NA
"42",1,"f",21,"neu","2024-04-18_18h17.05.085","Visual_search_sk","2023.2.3","MacIntel",58.82352941,NA,NA,NA,NA,NA,NA,NA,"","",NA,NA,NA,NA,NA,67,"notebook",26,"сделать заметку",1,0,3,"[-0.38148,0.38520000000000004]",-333,325,1,0,0,4.926,1,"target","[-0.38148,0.38520000000000004]",45,0,45,0,1,NA,NA
"43",1,"f",21,"neu","2024-04-18_18h17.05.085","Visual_search_sk","2023.2.3","MacIntel",58.82352941,NA,NA,NA,NA,NA,NA,NA,"","",NA,NA,NA,NA,NA,39,"email",16,"проверить электронную почту",1,1,2,"[0.28890000000000005,-0.28611]",269,-243,1,0,0,2.579,1,"target","[0.28890000000000005,-0.28611]",46,0,46,0,1,NA,NA
"44",1,"f",21,"neu","2024-04-18_18h17.05.085","Visual_search_sk","2023.2.3","MacIntel",58.82352941,NA,NA,NA,NA,NA,NA,NA,"","",NA,NA,NA,NA,NA,46,"planner",29,"создать маркированный список планов на день",0,0,2,"[-0.09443999999999997,0.09723000000000004]",-81,102,1,0,0,2.161,1,"target","[-0.09443999999999997,0.09723000000000004]",47,0,47,0,1,NA,NA
"45",1,"f",21,"neu","2024-04-18_18h17.05.085","Visual_search_sk","2023.2.3","MacIntel",58.82352941,NA,NA,NA,NA,NA,NA,NA,"","",NA,NA,NA,NA,NA,77,"wallet",39,"посмотреть свои скидочные и дебетовые карты",0,0,3,"[-0.38148,0.0018600000000000283]",-317,5,1,0,0,2.709,1,"target","[-0.38148,0.0018600000000000283]",48,0,48,0,1,NA,NA
"46",1,"f",21,"neu","2024-04-18_18h17.05.085","Visual_search_sk","2023.2.3","MacIntel",58.82352941,NA,NA,NA,NA,NA,NA,NA,"","",NA,NA,NA,NA,NA,6,"phone",28,"сделать телефонный звонок",1,1,1,"[0,0.19167]",12,157,1,0,0,1.581,1,"target","[0,0.19167]",49,0,49,0,1,NA,NA
"47",1,"f",21,"neu","2024-04-18_18h17.05.085","Visual_search_sk","2023.2.3","MacIntel",58.82352941,NA,NA,NA,NA,NA,NA,NA,"","",NA,NA,NA,NA,NA,71,"train",36,"приобрести билеты на поезд",1,0,3,"[-0.38148,-0.18980999999999998]",-344,-170,1,0,0,5.391,1,"target","[-0.38148,-0.18980999999999998]",50,0,50,0,1,NA,NA
"48",1,"f",21,"neu","2024-04-18_18h17.05.085","Visual_search_sk","2023.2.3","MacIntel",58.82352941,NA,NA,NA,NA,NA,NA,NA,"","",NA,NA,NA,NA,NA,83,"files",17,"открыть файл, хранящийся на устройстве",0,1,3,"[0.19353000000000004,0.38520000000000004]",175,345,1,0,0,3.406,1,"target","[0.19353000000000004,0.38520000000000004]",51,0,51,0,1,NA,NA
"49",1,"f",21,"neu","2024-04-18_18h17.05.085","Visual_search_sk","2023.2.3","MacIntel",58.82352941,NA,NA,NA,NA,NA,NA,NA,"","",NA,NA,NA,NA,NA,8,"email",16,"проверить электронную почту",1,1,1,"[0.19167,0.19167]",182,176,1,0,0,1.329,1,"target","[0.19167,0.19167]",52,0,52,0,1,NA,NA
"50",1,"f",21,"neu","2024-04-18_18h17.05.085","Visual_search_sk","2023.2.3","MacIntel",58.82352941,NA,NA,NA,NA,NA,NA,NA,"","",NA,NA,NA,NA,NA,53,"editor",15,"отредактировать фото",0,0,2,"[0.09723000000000004,-0.28611]",83,-265,1,0,0,2.278,1,"target","[0.09723000000000004,-0.28611]",53,0,53,0,1,NA,NA
"51",1,"f",21,"neu","2024-04-18_18h17.05.085","Visual_search_sk","2023.2.3","MacIntel",58.82352941,NA,NA,NA,NA,NA,NA,NA,"","",NA,NA,NA,NA,NA,49,"download",14,"открыть скачанный файл",0,0,2,"[-0.28611,-0.09443999999999997]",-277,-102,1,0,0,1.394,1,"target","[-0.28611,-0.09443999999999997]",54,0,54,0,1,NA,NA
"52",1,"f",21,"neu","2024-04-18_18h17.05.085","Visual_search_sk","2023.2.3","MacIntel",58.82352941,NA,NA,NA,NA,NA,NA,NA,"","",NA,NA,NA,NA,NA,76,"ruler",30,"измерить длину предмета",0,0,3,"[-0.18980999999999998,-0.18980999999999998]",-193,-174,1,0,0,0.874,1,"target","[-0.18980999999999998,-0.18980999999999998]",55,0,55,0,1,NA,NA
"53",1,"f",21,"neu","2024-04-18_18h17.05.085","Visual_search_sk","2023.2.3","MacIntel",58.82352941,NA,NA,NA,NA,NA,NA,NA,"","",NA,NA,NA,NA,NA,52,"ruler",30,"измерить длину предмета",0,0,2,"[-0.28611,-0.28611]",-277,-270,1,0,0,0.846,1,"target","[-0.28611,-0.28611]",56,0,56,0,1,NA,NA
"54",1,"f",21,"neu","2024-04-18_18h17.05.085","Visual_search_sk","2023.2.3","MacIntel",58.82352941,NA,NA,NA,NA,NA,NA,NA,"","",NA,NA,NA,NA,NA,16,"metro",24,"открыть схему линий метро",0,0,1,"[-0.19167,0]",-193,4,1,0,0,1.428,1,"target","[-0.19167,0]",57,0,57,0,1,NA,NA
"55",1,"f",21,"neu","2024-04-18_18h17.05.085","Visual_search_sk","2023.2.3","MacIntel",58.82352941,NA,NA,NA,NA,NA,NA,NA,"","",NA,NA,NA,NA,NA,54,"metro",24,"открыть схему линий метро",0,0,2,"[0.09723000000000004,-0.28611]",109,-242,1,0,0,1.196,1,"target","[0.09723000000000004,-0.28611]",58,0,58,0,1,NA,NA
"56",1,"f",21,"neu","2024-04-18_18h17.05.085","Visual_search_sk","2023.2.3","MacIntel",58.82352941,NA,NA,NA,NA,NA,NA,NA,"","",NA,NA,NA,NA,NA,17,"browser",5,"выйти в интернет",0,1,1,"[0,-0.19167]",8,-193,1,0,0,3.212,1,"target","[0,-0.19167]",60,0,60,0,1,NA,NA
"57",1,"f",21,"neu","2024-04-18_18h17.05.085","Visual_search_sk","2023.2.3","MacIntel",58.82352941,NA,NA,NA,NA,NA,NA,NA,"","",NA,NA,NA,NA,NA,62,"maps",22,"узнать, где находится ближайший продуктовый магазин",1,1,3,"[0.0018600000000000283,-0.18980999999999998]",-8,-181,1,0,0,4.561,1,"target","[0.0018600000000000283,-0.18980999999999998]",61,0,61,0,1,NA,NA
"58",1,"f",21,"neu","2024-04-18_18h17.05.085","Visual_search_sk","2023.2.3","MacIntel",58.82352941,NA,NA,NA,NA,NA,NA,NA,"","",NA,NA,NA,NA,NA,45,"browser",5,"выйти в интернет",0,1,2,"[-0.09443999999999997,0.28890000000000005]",-88,260,1,0,0,2.663,1,"target","[-0.09443999999999997,0.28890000000000005]",62,0,62,0,1,NA,NA
"59",1,"f",21,"neu","2024-04-18_18h17.05.085","Visual_search_sk","2023.2.3","MacIntel",58.82352941,NA,NA,NA,NA,NA,NA,NA,"","",NA,NA,NA,NA,NA,21,"compass",10,"узнать, в какой стороне света Юг",0,0,1,"[0.19167,0.19167]",158,170,1,0,0,3.048,1,"target","[0.19167,0.19167]",63,0,63,0,1,NA,NA
"60",1,"f",21,"neu","2024-04-18_18h17.05.085","Visual_search_sk","2023.2.3","MacIntel",58.82352941,NA,NA,NA,NA,NA,NA,NA,"","",NA,NA,NA,NA,NA,72,"calendar",7,"узнать на какой день недели выпадает мой день рождения",1,1,3,"[0.0018600000000000283,-0.38148]",12,-344,1,0,0,3.76,1,"target","[0.0018600000000000283,-0.38148]",64,0,64,0,1,NA,NA
"61",1,"f",21,"neu","2024-04-18_18h17.05.085","Visual_search_sk","2023.2.3","MacIntel",58.82352941,NA,NA,NA,NA,NA,NA,NA,"","",NA,NA,NA,NA,NA,55,"translator",37,"перевести текст",0,1,2,"[-0.28611,-0.28611]",-253,-245,1,0,0,2.093,1,"target","[-0.28611,-0.28611]",65,0,65,0,1,NA,NA
"62",1,"f",21,"neu","2024-04-18_18h17.05.085","Visual_search_sk","2023.2.3","MacIntel",58.82352941,NA,NA,NA,NA,NA,NA,NA,"","",NA,NA,NA,NA,NA,29,"store",33,"совершить заказ в продуктовом магазине",0,0,1,"[0,0.19167]",14,158,1,0,0,1.546,1,"target","[0,0.19167]",66,0,66,0,1,NA,NA
"63",1,"f",21,"neu","2024-04-18_18h17.05.085","Visual_search_sk","2023.2.3","MacIntel",58.82352941,NA,NA,NA,NA,NA,NA,NA,"","",NA,NA,NA,NA,NA,3,"messager",23,"отправить сообщение",1,1,1,"[-0.19167,0]",-151,0,1,0,0,1.228,1,"target","[-0.19167,0]",67,0,67,0,1,NA,NA
"64",1,"f",21,"neu","2024-04-18_18h17.05.085","Visual_search_sk","2023.2.3","MacIntel",58.82352941,NA,NA,NA,NA,NA,NA,NA,"","",NA,NA,NA,NA,NA,33,"train",36,"приобрести билеты на поезд",1,0,2,"[-0.09443999999999997,0.28890000000000005]",-92,248,1,0,0,4.428,1,"target","[-0.09443999999999997,0.28890000000000005]",68,0,68,0,1,NA,NA
"65",1,"f",21,"neu","2024-04-18_18h17.05.085","Visual_search_sk","2023.2.3","MacIntel",58.82352941,NA,NA,NA,NA,NA,NA,NA,"","",NA,NA,NA,NA,NA,14,"calendar",7,"узнать на какой день недели выпадает мой день рождения",1,1,1,"[0.19167,0.19167]",142,158,1,0,0,1.438,1,"target","[0.19167,0.19167]",69,0,69,0,1,NA,NA
"66",1,"f",21,"neu","2024-04-18_18h17.05.085","Visual_search_sk","2023.2.3","MacIntel",58.82352941,NA,NA,NA,NA,NA,NA,NA,"","",NA,NA,NA,NA,NA,89,"store",33,"совершить заказ в продуктовом магазине",0,0,3,"[-0.38148,-0.38148]",-326,-341,1,0,0,3.16,1,"target","[-0.38148,-0.38148]",70,0,70,0,1,NA,NA
"67",1,"f",21,"neu","2024-04-18_18h17.05.085","Visual_search_sk","2023.2.3","MacIntel",58.82352941,NA,NA,NA,NA,NA,NA,NA,"","",NA,NA,NA,NA,NA,27,"files",17,"открыть файл, хранящийся на устройстве",0,1,1,"[-0.19167,-0.19167]",-168,-148,1,0,0,1.279,1,"target","[-0.19167,-0.19167]",71,0,71,0,1,NA,NA
"68",1,"f",21,"neu","2024-04-18_18h17.05.085","Visual_search_sk","2023.2.3","MacIntel",58.82352941,NA,NA,NA,NA,NA,NA,NA,"","",NA,NA,NA,NA,NA,26,"book",4,"почитать сохраненную книгу",0,0,1,"[0,0]",4,5,1,0,0,1.48,1,"target","[0,0]",72,0,72,0,1,NA,NA
"69",1,"f",21,"neu","2024-04-18_18h17.05.085","Visual_search_sk","2023.2.3","MacIntel",58.82352941,NA,NA,NA,NA,NA,NA,NA,"","",NA,NA,NA,NA,NA,19,"documents",13,"открыть сохраненные офисные документы",0,0,1,"[0.19167,0.19167]",186,171,1,0,0,3.314,1,"target","[0.19167,0.19167]",74,0,74,0,1,NA,NA
"70",1,"f",21,"neu","2024-04-18_18h17.05.085","Visual_search_sk","2023.2.3","MacIntel",58.82352941,NA,NA,NA,NA,NA,NA,NA,"","",NA,NA,NA,NA,NA,12,"gallery",19,"посмотреть сделанные фотографии",1,1,1,"[0,0]",4,-24,1,0,0,2.546,1,"target","[0,0]",75,0,75,0,1,NA,NA
"71",1,"f",21,"neu","2024-04-18_18h17.05.085","Visual_search_sk","2023.2.3","MacIntel",58.82352941,NA,NA,NA,NA,NA,NA,NA,"","",NA,NA,NA,NA,NA,75,"air",1,"приобрести билеты на самолет",0,0,3,"[0.0018600000000000283,0.38520000000000004]",3,326,1,0,0,6.09,1,"target","[0.0018600000000000283,0.38520000000000004]",76,0,76,0,1,NA,NA
"72",1,"f",21,"neu","2024-04-18_18h17.05.085","Visual_search_sk","2023.2.3","MacIntel",58.82352941,NA,NA,NA,NA,NA,NA,NA,"","",NA,NA,NA,NA,NA,15,"wallet",39,"посмотреть свои скидочные и дебетовые карты",0,0,1,"[0,-0.19167]",16,-137,1,0,0,1.229,1,"target","[0,-0.19167]",77,0,77,0,1,NA,NA
"73",1,"f",21,"neu","2024-04-18_18h17.05.085","Visual_search_sk","2023.2.3","MacIntel",58.82352941,NA,NA,NA,NA,NA,NA,NA,"","",NA,NA,NA,NA,NA,48,"compass",10,"узнать, в какой стороне света Юг",0,0,2,"[0.28890000000000005,-0.28611]",249,-251,1,0,0,4.03,1,"target","[0.28890000000000005,-0.28611]",78,0,78,0,1,NA,NA
"74",1,"f",21,"neu","2024-04-18_18h17.05.085","Visual_search_sk","2023.2.3","MacIntel",58.82352941,NA,NA,NA,NA,NA,NA,NA,"","",NA,NA,NA,NA,NA,56,"store",33,"совершить заказ в продуктовом магазине",0,0,2,"[-0.28611,-0.28611]",-263,-272,1,0,0,2.096,1,"target","[-0.28611,-0.28611]",79,0,79,0,1,NA,NA
"75",1,"f",21,"neu","2024-04-18_18h17.05.085","Visual_search_sk","2023.2.3","MacIntel",58.82352941,NA,NA,NA,NA,NA,NA,NA,"","",NA,NA,NA,NA,NA,47,"book",4,"почитать сохраненную книгу",0,0,2,"[0.09723000000000004,-0.28611]",95,-251,1,0,0,3.162,1,"target","[0.09723000000000004,-0.28611]",80,0,80,0,1,NA,NA
"76",1,"f",21,"neu","2024-04-18_18h17.05.085","Visual_search_sk","2023.2.3","MacIntel",58.82352941,NA,NA,NA,NA,NA,NA,NA,"","",NA,NA,NA,NA,NA,22,"download",14,"открыть скачанный файл",0,0,1,"[0,0.19167]",12,172,1,0,0,1.93,1,"target","[0,0.19167]",81,0,81,0,1,NA,NA
"77",1,"f",21,"neu","2024-04-18_18h17.05.085","Visual_search_sk","2023.2.3","MacIntel",58.82352941,NA,NA,NA,NA,NA,NA,NA,"","",NA,NA,NA,NA,NA,1,"notebook",26,"сделать заметку",1,0,1,"[-0.19167,0.19167]",-161,161,1,0,0,1.996,1,"target","[-0.19167,0.19167]",82,0,82,0,1,NA,NA
"78",1,"f",21,"neu","2024-04-18_18h17.05.085","Visual_search_sk","2023.2.3","MacIntel",58.82352941,NA,NA,NA,NA,NA,NA,NA,"","",NA,NA,NA,NA,NA,23,"dictaphone",12,"записать свой голос",0,0,1,"[0,-0.19167]",-1,-164,1,0,0,1.261,1,"target","[0,-0.19167]",83,0,83,0,1,NA,NA
"79",1,"f",21,"neu","2024-04-18_18h17.05.085","Visual_search_sk","2023.2.3","MacIntel",58.82352941,NA,NA,NA,NA,NA,NA,NA,"","",NA,NA,NA,NA,NA,25,"bank",3,"узнать курс доллара и купить его",0,1,1,"[0,-0.19167]",8,-183,1,0,0,1.31,1,"target","[0,-0.19167]",84,0,84,0,1,NA,NA
"80",1,"f",21,"neu","2024-04-18_18h17.05.085","Visual_search_sk","2023.2.3","MacIntel",58.82352941,NA,NA,NA,NA,NA,NA,NA,"","",NA,NA,NA,NA,NA,13,"taxi",34,"заказать такси",1,0,1,"[0,0]",10,-27,1,0,0,1.046,1,"target","[0,0]",85,0,85,0,1,NA,NA
"81",1,"f",21,"neu","2024-04-18_18h17.05.085","Visual_search_sk","2023.2.3","MacIntel",58.82352941,NA,NA,NA,NA,NA,NA,NA,"","",NA,NA,NA,NA,NA,51,"files",17,"открыть файл, хранящийся на устройстве",0,1,2,"[-0.28611,-0.28611]",-273,-265,1,0,0,2.095,1,"target","[-0.28611,-0.28611]",86,0,86,0,1,NA,NA
"82",1,"f",21,"neu","2024-04-18_18h17.05.085","Visual_search_sk","2023.2.3","MacIntel",58.82352941,NA,NA,NA,NA,NA,NA,NA,"","",NA,NA,NA,NA,NA,64,"camera",8,"сделать фотоснимок",1,1,3,"[-0.38148,0.19353000000000004]",-327,176,1,0,0,2.342,1,"target","[-0.38148,0.19353000000000004]",87,0,87,0,1,NA,NA
"83",1,"f",21,"neu","2024-04-18_18h17.05.085","Visual_search_sk","2023.2.3","MacIntel",58.82352941,NA,NA,NA,NA,NA,NA,NA,"","",NA,NA,NA,NA,NA,9,"calculator",6,"разделить число на 3",1,1,1,"[-0.19167,0]",-168,2,1,0,0,2.062,1,"target","[-0.19167,0]",88,0,88,0,1,NA,NA
"84",1,"f",21,"neu","2024-04-18_18h17.05.085","Visual_search_sk","2023.2.3","MacIntel",58.82352941,NA,NA,NA,NA,NA,NA,NA,"","",NA,NA,NA,NA,NA,41,"messager",23,"отправить сообщение",1,1,2,"[-0.09443999999999997,-0.09443999999999997]",-69,-104,1,0,0,1.312,1,"target","[-0.09443999999999997,-0.09443999999999997]",89,0,89,0,1,NA,NA
"85",2,"m",22,"fl","2024-05-08_20h30.17.304","Visual_search_sk","2023.2.3","MacIntel",29.94011976,NA,NA,NA,NA,NA,NA,NA,"","",NA,NA,NA,NA,NA,7,"taxi",34,"заказать такси",1,0,1,"[0,0]",-14.5546875,-27.0234375,1,0,0,0.9942,1,"target","[0,0]",1,0,1,0,1,NA,NA
"86",2,"m",22,"fl","2024-05-08_20h30.17.304","Visual_search_sk","2023.2.3","MacIntel",29.94011976,NA,NA,NA,NA,NA,NA,NA,"","",NA,NA,NA,NA,NA,27,"ruler",30,"измерить длину предмета",0,0,1,"[-0.19167,0]",-195.1484375,-20.78125,1,0,0,1.1618,1,"target","[-0.19167,0]",2,0,2,0,1,NA,NA
"87",2,"m",22,"fl","2024-05-08_20h30.17.304","Visual_search_sk","2023.2.3","MacIntel",29.94011976,NA,NA,NA,NA,NA,NA,NA,"","",NA,NA,NA,NA,NA,40,"contacts",11,"найти номер телефона коллеги",1,0,2,"[-0.28611,0.28890000000000005]",-293.0664063,300.0078125,1,0,0,7.8028,1,"target","[-0.28611,0.28890000000000005]",3,0,3,0,1,NA,NA
"88",2,"m",22,"fl","2024-05-08_20h30.17.304","Visual_search_sk","2023.2.3","MacIntel",29.94011976,NA,NA,NA,NA,NA,NA,NA,"","",NA,NA,NA,NA,NA,79,"documents",13,"открыть сохраненные офисные документы",0,0,3,"[0.38520000000000004,0.19353000000000004]",434.3632813,198.015625,1,0,0,1.933,1,"target","[0.38520000000000004,0.19353000000000004]",4,0,4,0,1,NA,NA
"89",2,"m",22,"fl","2024-05-08_20h30.17.304","Visual_search_sk","2023.2.3","MacIntel",29.94011976,NA,NA,NA,NA,NA,NA,NA,"","",NA,NA,NA,NA,NA,11,"calculator",6,"разделить число на 3",1,1,1,"[0,0.19167]",7.3203125,198.8398438,1,0,0,2.0649,1,"target","[0,0.19167]",5,0,5,0,1,NA,NA
"90",2,"m",22,"fl","2024-05-08_20h30.17.304","Visual_search_sk","2023.2.3","MacIntel",29.94011976,NA,NA,NA,NA,NA,NA,NA,"","",NA,NA,NA,NA,NA,71,"gallery",19,"посмотреть сделанные фотографии",1,1,3,"[0.38520000000000004,-0.18980999999999998]",415.3984375,-175.4296875,1,0,0,4.347,1,"target","[0.38520000000000004,-0.18980999999999998]",6,0,6,0,1,NA,NA
"91",2,"m",22,"fl","2024-05-08_20h30.17.304","Visual_search_sk","2023.2.3","MacIntel",29.94011976,NA,NA,NA,NA,NA,NA,NA,"","",NA,NA,NA,NA,NA,4,"camera",8,"сделать фотоснимок",1,1,1,"[-0.19167,0]",-228.984375,-6.0234375,1,0,0,2.1297,1,"target","[-0.19167,0]",7,0,7,0,1,NA,NA
"92",2,"m",22,"fl","2024-05-08_20h30.17.304","Visual_search_sk","2023.2.3","MacIntel",29.94011976,NA,NA,NA,NA,NA,NA,NA,"","",NA,NA,NA,NA,NA,66,"calculator",6,"разделить число на 3",1,1,3,"[0.38520000000000004,0.19353000000000004]",396.46875,206.6835938,1,0,0,3.6521,1,"target","[0.38520000000000004,0.19353000000000004]",8,0,8,0,1,NA,NA
"93",2,"m",22,"fl","2024-05-08_20h30.17.304","Visual_search_sk","2023.2.3","MacIntel",29.94011976,NA,NA,NA,NA,NA,NA,NA,"","",NA,NA,NA,NA,NA,25,"air",1,"приобрести билеты на самолет",0,0,1,"[0.19167,0.19167]",218.140625,206.7460938,1,0,0,1.1313,1,"target","[0.19167,0.19167]",9,0,9,0,1,NA,NA
"94",2,"m",22,"fl","2024-05-08_20h30.17.304","Visual_search_sk","2023.2.3","MacIntel",29.94011976,NA,NA,NA,NA,NA,NA,NA,"","",NA,NA,NA,NA,NA,28,"editor",15,"отредактировать фото",0,0,1,"[0.19167,0]",217.1445313,1.6171875,1,0,0,1.7311,1,"target","[0.19167,0]",10,0,10,0,1,NA,NA
"95",2,"m",22,"fl","2024-05-08_20h30.17.304","Visual_search_sk","2023.2.3","MacIntel",29.94011976,NA,NA,NA,NA,NA,NA,NA,"","",NA,NA,NA,NA,NA,23,"compass",10,"узнать, в какой стороне света Юг",0,0,1,"[-0.19167,0.19167]",-250.9648438,231.7578125,1,0,0,3.5376,1,"target","[-0.19167,0.19167]",11,0,11,0,1,NA,NA
"96",2,"m",22,"fl","2024-05-08_20h30.17.304","Visual_search_sk","2023.2.3","MacIntel",29.94011976,NA,NA,NA,NA,NA,NA,NA,"","",NA,NA,NA,NA,NA,13,"contacts",11,"найти номер телефона коллеги",1,0,1,"[-0.19167,0.19167]",-188.4570313,204.5273438,1,0,0,1.4503,1,"target","[-0.19167,0.19167]",12,0,12,0,1,NA,NA
"97",2,"m",22,"fl","2024-05-08_20h30.17.304","Visual_search_sk","2023.2.3","MacIntel",29.94011976,NA,NA,NA,NA,NA,NA,NA,"","",NA,NA,NA,NA,NA,82,"planner",29,"создать маркированный список планов на день",0,0,3,"[0.0018600000000000283,-0.38148]",-5.19140625,-412.1914063,1,0,0,1.8755,1,"target","[0.0018600000000000283,-0.38148]",14,0,14,0,1,NA,NA
"98",2,"m",22,"fl","2024-05-08_20h30.17.304","Visual_search_sk","2023.2.3","MacIntel",29.94011976,NA,NA,NA,NA,NA,NA,NA,"","",NA,NA,NA,NA,NA,8,"maps",22,"узнать, где находится ближайший продуктовый магазин",1,1,1,"[0,0]",-4.9921875,17.2578125,1,0,0,1.4668,1,"target","[0,0]",15,0,15,0,1,NA,NA
"99",2,"m",22,"fl","2024-05-08_20h30.17.304","Visual_search_sk","2023.2.3","MacIntel",29.94011976,NA,NA,NA,NA,NA,NA,NA,"","",NA,NA,NA,NA,NA,17,"files",17,"открыть файл, хранящийся на устройстве",0,1,1,"[-0.19167,0.19167]",-174.5546875,188.4140625,1,0,0,1.4236,1,"target","[-0.19167,0.19167]",16,0,16,0,1,NA,NA
"100",2,"m",22,"fl","2024-05-08_20h30.17.304","Visual_search_sk","2023.2.3","MacIntel",29.94011976,NA,NA,NA,NA,NA,NA,NA,"","",NA,NA,NA,NA,NA,85,"compass",10,"узнать, в какой стороне света Юг",0,0,3,"[0.38520000000000004,-0.38148]",430.953125,-419.6757813,1,0,0,5.2155,1,"target","[0.38520000000000004,-0.38148]",17,0,17,0,1,NA,NA
"101",2,"m",22,"fl","2024-05-08_20h30.17.304","Visual_search_sk","2023.2.3","MacIntel",29.94011976,NA,NA,NA,NA,NA,NA,NA,"","",NA,NA,NA,NA,NA,64,"camera",8,"сделать фотоснимок",1,1,3,"[0.19353000000000004,-0.18980999999999998]",246.9570313,-205.03125,1,0,0,1.7012,1,"target","[0.19353000000000004,-0.18980999999999998]",18,0,18,0,1,NA,NA
"102",2,"m",22,"fl","2024-05-08_20h30.17.304","Visual_search_sk","2023.2.3","MacIntel",29.94011976,NA,NA,NA,NA,NA,NA,NA,"","",NA,NA,NA,NA,NA,49,"store",33,"совершить заказ в продуктовом магазине",0,0,2,"[0.28890000000000005,-0.09443999999999997]",277.625,-68.14453125,1,0,0,5.5321,1,"target","[0.28890000000000005,-0.09443999999999997]",19,0,19,0,1,NA,NA
"103",2,"m",22,"fl","2024-05-08_20h30.17.304","Visual_search_sk","2023.2.3","MacIntel",29.94011976,NA,NA,NA,NA,NA,NA,NA,"","",NA,NA,NA,NA,NA,33,"time",35,"посмотреть, сколько времени во Владивостоке",1,1,2,"[-0.28611,-0.09443999999999997]",-296.9882813,-76.18359375,1,0,0,3.5356,1,"target","[-0.28611,-0.09443999999999997]",20,0,20,0,1,NA,NA
"104",2,"m",22,"fl","2024-05-08_20h30.17.304","Visual_search_sk","2023.2.3","MacIntel",29.94011976,NA,NA,NA,NA,NA,NA,NA,"","",NA,NA,NA,NA,NA,72,"music",25,"послушать музыку",1,1,3,"[-0.18980999999999998,0.19353000000000004]",-200.3398438,205.171875,1,0,0,0.9256,1,"target","[-0.18980999999999998,0.19353000000000004]",21,0,21,0,1,NA,NA
"105",2,"m",22,"fl","2024-05-08_20h30.17.304","Visual_search_sk","2023.2.3","MacIntel",29.94011976,NA,NA,NA,NA,NA,NA,NA,"","",NA,NA,NA,NA,NA,89,"editor",15,"отредактировать фото",0,0,3,"[-0.18980999999999998,0.19353000000000004]",-195.421875,212.4765625,1,0,0,2.2304,1,"target","[-0.18980999999999998,0.19353000000000004]",22,0,22,0,1,NA,NA
"106",2,"m",22,"fl","2024-05-08_20h30.17.304","Visual_search_sk","2023.2.3","MacIntel",29.94011976,NA,NA,NA,NA,NA,NA,NA,"","",NA,NA,NA,NA,NA,15,"bank",3,"узнать курс доллара и купить его",0,1,1,"[0.19167,0]",178.5195313,54.05859375,1,0,0,6.3686,1,"target","[0.19167,0]",23,0,23,0,1,NA,NA
"107",2,"m",22,"fl","2024-05-08_20h30.17.304","Visual_search_sk","2023.2.3","MacIntel",29.94011976,NA,NA,NA,NA,NA,NA,NA,"","",NA,NA,NA,NA,NA,69,"settings",31,"изменить настройки устройства",1,1,3,"[0.0018600000000000283,0.38520000000000004]",-25.421875,375.265625,1,0,0,5.2779,1,"target","[0.0018600000000000283,0.38520000000000004]",24,0,24,0,1,NA,NA
"108",2,"m",22,"fl","2024-05-08_20h30.17.304","Visual_search_sk","2023.2.3","MacIntel",29.94011976,NA,NA,NA,NA,NA,NA,NA,"","",NA,NA,NA,NA,NA,32,"messager",23,"отправить сообщение",1,1,2,"[0.28890000000000005,0.28890000000000005]",295.3945313,299.2617188,1,0,0,2.2732,1,"target","[0.28890000000000005,0.28890000000000005]",25,0,25,0,1,NA,NA
"109",2,"m",22,"fl","2024-05-08_20h30.17.304","Visual_search_sk","2023.2.3","MacIntel",29.94011976,NA,NA,NA,NA,NA,NA,NA,"","",NA,NA,NA,NA,NA,81,"air",1,"приобрести билеты на самолет",0,0,3,"[0.38520000000000004,0.19353000000000004]",404.3203125,198.4609375,1,0,0,1.634,1,"target","[0.38520000000000004,0.19353000000000004]",26,0,26,0,1,NA,NA
"110",2,"m",22,"fl","2024-05-08_20h30.17.304","Visual_search_sk","2023.2.3","MacIntel",29.94011976,NA,NA,NA,NA,NA,NA,NA,"","",NA,NA,NA,NA,NA,58,"editor",15,"отредактировать фото",0,0,2,"[0.28890000000000005,-0.28611]",281.0390625,-277.8984375,1,0,0,1.614,1,"target","[0.28890000000000005,-0.28611]",27,0,27,0,1,NA,NA
"111",2,"m",22,"fl","2024-05-08_20h30.17.304","Visual_search_sk","2023.2.3","MacIntel",29.94011976,NA,NA,NA,NA,NA,NA,NA,"","",NA,NA,NA,NA,NA,16,"planner",29,"создать маркированный список планов на день",0,0,1,"[0.19167,0.19167]",235.9453125,192.5976563,1,0,0,1.2821,1,"target","[0.19167,0.19167]",28,0,28,0,1,NA,NA
"112",2,"m",22,"fl","2024-05-08_20h30.17.304","Visual_search_sk","2023.2.3","MacIntel",29.94011976,NA,NA,NA,NA,NA,NA,NA,"","",NA,NA,NA,NA,NA,20,"metro",24,"открыть схему линий метро",0,0,1,"[0.19167,0]",179.2460938,21.203125,1,0,0,1.0634,1,"target","[0.19167,0]",29,0,29,0,1,NA,NA
"113",2,"m",22,"fl","2024-05-08_20h30.17.304","Visual_search_sk","2023.2.3","MacIntel",29.94011976,NA,NA,NA,NA,NA,NA,NA,"","",NA,NA,NA,NA,NA,46,"book",4,"почитать сохраненную книгу",0,0,2,"[0.09723000000000004,-0.28611]",77.328125,-289.7148438,1,0,0,2.3788,1,"target","[0.09723000000000004,-0.28611]",30,0,30,0,1,NA,NA
"114",2,"m",22,"fl","2024-05-08_20h30.17.304","Visual_search_sk","2023.2.3","MacIntel",29.94011976,NA,NA,NA,NA,NA,NA,NA,"","",NA,NA,NA,NA,NA,6,"weather",40,"узнать погоду на завтра",1,1,1,"[0.19167,0.19167]",240.5429688,242.1054688,1,0,0,1.2257,1,"target","[0.19167,0.19167]",31,0,31,0,1,NA,NA
"115",2,"m",22,"fl","2024-05-08_20h30.17.304","Visual_search_sk","2023.2.3","MacIntel",29.94011976,NA,NA,NA,NA,NA,NA,NA,"","",NA,NA,NA,NA,NA,59,"metro",24,"открыть схему линий метро",0,0,2,"[-0.09443999999999997,-0.28611]",-86.4140625,-293.046875,1,0,0,2.0585,1,"target","[-0.09443999999999997,-0.28611]",32,0,32,0,1,NA,NA
"116",2,"m",22,"fl","2024-05-08_20h30.17.304","Visual_search_sk","2023.2.3","MacIntel",29.94011976,NA,NA,NA,NA,NA,NA,NA,"","",NA,NA,NA,NA,NA,39,"settings",31,"изменить настройки устройства",1,1,2,"[0.09723000000000004,-0.28611]",102.5703125,-329.0507813,1,0,0,2.6749,1,"target","[0.09723000000000004,-0.28611]",33,0,33,0,1,NA,NA
"117",2,"m",22,"fl","2024-05-08_20h30.17.304","Visual_search_sk","2023.2.3","MacIntel",29.94011976,NA,NA,NA,NA,NA,NA,NA,"","",NA,NA,NA,NA,NA,65,"weather",40,"узнать погоду на завтра",1,1,3,"[0.19353000000000004,0.38520000000000004]",231.6640625,445.96875,1,0,0,1.9113,1,"target","[0.19353000000000004,0.38520000000000004]",34,0,34,0,1,NA,NA
"118",2,"m",22,"fl","2024-05-08_20h30.17.304","Visual_search_sk","2023.2.3","MacIntel",29.94011976,NA,NA,NA,NA,NA,NA,NA,"","",NA,NA,NA,NA,NA,47,"ruler",30,"измерить длину предмета",0,0,2,"[0.09723000000000004,-0.09443999999999997]",105.171875,-114.6289063,1,0,0,4.1253,1,"target","[0.09723000000000004,-0.09443999999999997]",35,0,35,0,1,NA,NA
"119",2,"m",22,"fl","2024-05-08_20h30.17.304","Visual_search_sk","2023.2.3","MacIntel",29.94011976,NA,NA,NA,NA,NA,NA,NA,"","",NA,NA,NA,NA,NA,5,"email",16,"проверить электронную почту",1,1,1,"[-0.19167,0]",-176.3242188,14.6953125,1,0,0,1.0656,1,"target","[-0.19167,0]",36,0,36,0,1,NA,NA
"120",2,"m",22,"fl","2024-05-08_20h30.17.304","Visual_search_sk","2023.2.3","MacIntel",29.94011976,NA,NA,NA,NA,NA,NA,NA,"","",NA,NA,NA,NA,NA,34,"calculator",6,"разделить число на 3",1,1,2,"[-0.28611,0.09723000000000004]",-275.8046875,101.6132813,1,0,0,1.261,1,"target","[-0.28611,0.09723000000000004]",37,0,37,0,1,NA,NA
"121",2,"m",22,"fl","2024-05-08_20h30.17.304","Visual_search_sk","2023.2.3","MacIntel",29.94011976,NA,NA,NA,NA,NA,NA,NA,"","",NA,NA,NA,NA,NA,60,"time",35,"посмотреть, сколько времени во Владивостоке",1,1,3,"[0.19353000000000004,0.19353000000000004]",194.9492188,187.40625,1,0,0,2.0604,1,"target","[0.19353000000000004,0.19353000000000004]",38,0,38,0,1,NA,NA
"122",2,"m",22,"fl","2024-05-08_20h30.17.304","Visual_search_sk","2023.2.3","MacIntel",29.94011976,NA,NA,NA,NA,NA,NA,NA,"","",NA,NA,NA,NA,NA,45,"planner",29,"создать маркированный список планов на день",0,0,2,"[-0.28611,0.28890000000000005]",-337.84375,335.375,1,0,0,1.1973,1,"target","[-0.28611,0.28890000000000005]",39,0,39,0,1,NA,NA
"123",2,"m",22,"fl","2024-05-08_20h30.17.304","Visual_search_sk","2023.2.3","MacIntel",29.94011976,NA,NA,NA,NA,NA,NA,NA,"","",NA,NA,NA,NA,NA,21,"translator",37,"перевести текст",0,1,1,"[0.19167,0.19167]",183.2890625,223.3671875,1,0,0,3.2945,1,"target","[0.19167,0.19167]",40,0,40,0,1,NA,NA
"124",2,"m",22,"fl","2024-05-08_20h30.17.304","Visual_search_sk","2023.2.3","MacIntel",29.94011976,NA,NA,NA,NA,NA,NA,NA,"","",NA,NA,NA,NA,NA,50,"bank",3,"узнать курс доллара и купить его",0,1,2,"[0.09723000000000004,0.09723000000000004]",72.5703125,136.390625,1,0,0,5.2333,1,"target","[0.09723000000000004,0.09723000000000004]",41,0,41,0,1,NA,NA
"125",2,"m",22,"fl","2024-05-08_20h30.17.304","Visual_search_sk","2023.2.3","MacIntel",29.94011976,NA,NA,NA,NA,NA,NA,NA,"","",NA,NA,NA,NA,NA,30,"gallery",19,"посмотреть сделанные фотографии",1,1,2,"[0.09723000000000004,0.09723000000000004]",89.1796875,110.4726563,1,0,0,1.3319,1,"target","[0.09723000000000004,0.09723000000000004]",42,0,42,0,1,NA,NA
"126",2,"m",22,"fl","2024-05-08_20h30.17.304","Visual_search_sk","2023.2.3","MacIntel",29.94011976,NA,NA,NA,NA,NA,NA,NA,"","",NA,NA,NA,NA,NA,84,"dictaphone",12,"записать свой голос",0,0,3,"[0.19353000000000004,0.19353000000000004]",190.53125,165.953125,1,0,0,4.9465,1,"target","[0.19353000000000004,0.19353000000000004]",43,0,43,0,1,NA,NA
"127",2,"m",22,"fl","2024-05-08_20h30.17.304","Visual_search_sk","2023.2.3","MacIntel",29.94011976,NA,NA,NA,NA,NA,NA,NA,"","",NA,NA,NA,NA,NA,63,"calendar",7,"узнать на какой день недели выпадает мой день рождения",1,1,3,"[0.0018600000000000283,0.19353000000000004]",33.5625,173.6289063,1,0,0,1.2492,1,"target","[0.0018600000000000283,0.19353000000000004]",46,0,46,0,1,NA,NA
"128",2,"m",22,"fl","2024-05-08_20h30.17.304","Visual_search_sk","2023.2.3","MacIntel",29.94011976,NA,NA,NA,NA,NA,NA,NA,"","",NA,NA,NA,NA,NA,18,"browser",5,"выйти в интернет",0,1,1,"[-0.19167,-0.19167]",-195.84375,-206.8007813,1,0,0,1.847,1,"target","[-0.19167,-0.19167]",47,0,47,0,1,NA,NA
"129",2,"m",22,"fl","2024-05-08_20h30.17.304","Visual_search_sk","2023.2.3","MacIntel",29.94011976,NA,NA,NA,NA,NA,NA,NA,"","",NA,NA,NA,NA,NA,67,"email",16,"проверить электронную почту",1,1,3,"[0.38520000000000004,0.38520000000000004]",427.3945313,398.8632813,1,0,0,3.72,1,"target","[0.38520000000000004,0.38520000000000004]",48,0,48,0,1,NA,NA
"130",2,"m",22,"fl","2024-05-08_20h30.17.304","Visual_search_sk","2023.2.3","MacIntel",29.94011976,NA,NA,NA,NA,NA,NA,NA,"","",NA,NA,NA,NA,NA,3,"settings",31,"изменить настройки устройства",1,1,1,"[0,0]",-24.359375,16.76953125,1,0,0,2.2986,1,"target","[0,0]",49,0,49,0,1,NA,NA
"131",2,"m",22,"fl","2024-05-08_20h30.17.304","Visual_search_sk","2023.2.3","MacIntel",29.94011976,NA,NA,NA,NA,NA,NA,NA,"","",NA,NA,NA,NA,NA,78,"metro",24,"открыть схему линий метро",0,0,3,"[-0.38148,0.19353000000000004]",-358.7890625,222.4648438,1,0,0,1.1288,1,"target","[-0.38148,0.19353000000000004]",50,0,50,0,1,NA,NA
"132",2,"m",22,"fl","2024-05-08_20h30.17.304","Visual_search_sk","2023.2.3","MacIntel",29.94011976,NA,NA,NA,NA,NA,NA,NA,"","",NA,NA,NA,NA,NA,26,"book",4,"почитать сохраненную книгу",0,0,1,"[0,0]",-13.92578125,18.36328125,1,0,0,2.2983,1,"target","[0,0]",51,0,51,0,1,NA,NA
"133",2,"m",22,"fl","2024-05-08_20h30.17.304","Visual_search_sk","2023.2.3","MacIntel",29.94011976,NA,NA,NA,NA,NA,NA,NA,"","",NA,NA,NA,NA,NA,48,"browser",5,"выйти в интернет",0,1,2,"[0.28890000000000005,0.09723000000000004]",337.9453125,111.7265625,1,0,0,2.5666,1,"target","[0.28890000000000005,0.09723000000000004]",52,0,52,0,1,NA,NA
"134",2,"m",22,"fl","2024-05-08_20h30.17.304","Visual_search_sk","2023.2.3","MacIntel",29.94011976,NA,NA,NA,NA,NA,NA,NA,"","",NA,NA,NA,NA,NA,12,"music",25,"послушать музыку",1,1,1,"[0,-0.19167]",-23.4140625,-167.2578125,1,0,0,2.9112,1,"target","[0,-0.19167]",53,0,53,0,1,NA,NA
"135",2,"m",22,"fl","2024-05-08_20h30.17.304","Visual_search_sk","2023.2.3","MacIntel",29.94011976,NA,NA,NA,NA,NA,NA,NA,"","",NA,NA,NA,NA,NA,56,"files",17,"открыть файл, хранящийся на устройстве",0,1,2,"[0.09723000000000004,0.28890000000000005]",93.375,341.6484375,1,0,0,4.3963,1,"target","[0.09723000000000004,0.28890000000000005]",54,0,54,0,1,NA,NA
"136",2,"m",22,"fl","2024-05-08_20h30.17.304","Visual_search_sk","2023.2.3","MacIntel",29.94011976,NA,NA,NA,NA,NA,NA,NA,"","",NA,NA,NA,NA,NA,51,"documents",13,"открыть сохраненные офисные документы",0,0,2,"[-0.28611,-0.09443999999999997]",-319.328125,-111.8632813,1,0,0,2.5854,1,"target","[-0.28611,-0.09443999999999997]",55,0,55,0,1,NA,NA
"137",2,"m",22,"fl","2024-05-08_20h30.17.304","Visual_search_sk","2023.2.3","MacIntel",29.94011976,NA,NA,NA,NA,NA,NA,NA,"","",NA,NA,NA,NA,NA,14,"calendar",7,"узнать на какой день недели выпадает мой день рождения",1,1,1,"[0,0.19167]",-9.55859375,187.4882813,1,0,0,1.0103,1,"target","[0,0.19167]",56,0,56,0,1,NA,NA
"138",2,"m",22,"fl","2024-05-08_20h30.17.304","Visual_search_sk","2023.2.3","MacIntel",29.94011976,NA,NA,NA,NA,NA,NA,NA,"","",NA,NA,NA,NA,NA,87,"book",4,"почитать сохраненную книгу",0,0,3,"[0.19353000000000004,0.0018600000000000283]",176.8828125,24.54296875,1,0,0,2.8872,1,"target","[0.19353000000000004,0.0018600000000000283]",57,0,57,0,1,NA,NA
"139",2,"m",22,"fl","2024-05-08_20h30.17.304","Visual_search_sk","2023.2.3","MacIntel",29.94011976,NA,NA,NA,NA,NA,NA,NA,"","",NA,NA,NA,NA,NA,54,"wallet",39,"посмотреть свои скидочные и дебетовые карты",0,0,2,"[-0.28611,0.28890000000000005]",-304.3320313,281.703125,1,0,0,1.3223,1,"target","[-0.28611,0.28890000000000005]",58,0,58,0,1,NA,NA
"140",2,"m",22,"fl","2024-05-08_20h30.17.304","Visual_search_sk","2023.2.3","MacIntel",29.94011976,NA,NA,NA,NA,NA,NA,NA,"","",NA,NA,NA,NA,NA,74,"messager",23,"отправить сообщение",1,1,3,"[0.38520000000000004,-0.38148]",402.1875,-410.9023438,1,0,0,2.332,1,"target","[0.38520000000000004,-0.38148]",59,0,59,0,1,NA,NA
"141",2,"m",22,"fl","2024-05-08_20h30.17.304","Visual_search_sk","2023.2.3","MacIntel",29.94011976,NA,NA,NA,NA,NA,NA,NA,"","",NA,NA,NA,NA,NA,38,"taxi",34,"заказать такси",1,0,2,"[-0.09443999999999997,-0.28611]",-83.44140625,-339.8164063,1,0,0,0.7277,1,"target","[-0.09443999999999997,-0.28611]",60,0,60,0,1,NA,NA
"142",2,"m",22,"fl","2024-05-08_20h30.17.304","Visual_search_sk","2023.2.3","MacIntel",29.94011976,NA,NA,NA,NA,NA,NA,NA,"","",NA,NA,NA,NA,NA,19,"store",33,"совершить заказ в продуктовом магазине",0,0,1,"[0.19167,0]",234.3164063,-12.6328125,1,0,0,1.748,1,"target","[0.19167,0]",61,0,61,0,1,NA,NA
"143",2,"m",22,"fl","2024-05-08_20h30.17.304","Visual_search_sk","2023.2.3","MacIntel",29.94011976,NA,NA,NA,NA,NA,NA,NA,"","",NA,NA,NA,NA,NA,22,"documents",13,"открыть сохраненные офисные документы",0,0,1,"[0.19167,0]",183.5351563,-8.390625,1,0,0,3.1313,1,"target","[0.19167,0]",62,0,62,0,1,NA,NA
"144",2,"m",22,"fl","2024-05-08_20h30.17.304","Visual_search_sk","2023.2.3","MacIntel",29.94011976,NA,NA,NA,NA,NA,NA,NA,"","",NA,NA,NA,NA,NA,53,"compass",10,"узнать, в какой стороне света Юг",0,0,2,"[0.09723000000000004,0.28890000000000005]",121.7734375,361.3710938,1,0,0,1.7997,1,"target","[0.09723000000000004,0.28890000000000005]",63,0,63,0,1,NA,NA
"145",2,"m",22,"fl","2024-05-08_20h30.17.304","Visual_search_sk","2023.2.3","MacIntel",29.94011976,NA,NA,NA,NA,NA,NA,NA,"","",NA,NA,NA,NA,NA,55,"translator",37,"перевести текст",0,1,2,"[0.09723000000000004,-0.28611]",75.8125,-267.8164063,1,0,0,2.3831,1,"target","[0.09723000000000004,-0.28611]",64,0,64,0,1,NA,NA
"146",2,"m",22,"fl","2024-05-08_20h30.17.304","Visual_search_sk","2023.2.3","MacIntel",29.94011976,NA,NA,NA,NA,NA,NA,NA,"","",NA,NA,NA,NA,NA,62,"contacts",11,"найти номер телефона коллеги",1,0,3,"[0.0018600000000000283,0.0018600000000000283]",1.9140625,-18.0234375,1,0,0,3.0891,1,"target","[0.0018600000000000283,0.0018600000000000283]",65,0,65,0,1,NA,NA
"147",2,"m",22,"fl","2024-05-08_20h30.17.304","Visual_search_sk","2023.2.3","MacIntel",29.94011976,NA,NA,NA,NA,NA,NA,NA,"","",NA,NA,NA,NA,NA,77,"browser",5,"выйти в интернет",0,1,3,"[0.38520000000000004,0.38520000000000004]",399.8554688,391.7265625,1,0,0,5.6683,1,"target","[0.38520000000000004,0.38520000000000004]",66,0,66,0,1,NA,NA
"148",2,"m",22,"fl","2024-05-08_20h30.17.304","Visual_search_sk","2023.2.3","MacIntel",29.94011976,NA,NA,NA,NA,NA,NA,NA,"","",NA,NA,NA,NA,NA,10,"phone",28,"сделать телефонный звонок",1,1,1,"[0,-0.19167]",-23.62890625,-161.5585938,1,0,0,4.5305,1,"target","[0,-0.19167]",67,0,67,0,1,NA,NA
"149",2,"m",22,"fl","2024-05-08_20h30.17.304","Visual_search_sk","2023.2.3","MacIntel",29.94011976,NA,NA,NA,NA,NA,NA,NA,"","",NA,NA,NA,NA,NA,9,"gallery",19,"посмотреть сделанные фотографии",1,1,1,"[0.19167,0]",236.7929688,36.421875,1,0,0,1.2957,1,"target","[0.19167,0]",68,0,68,0,1,NA,NA
"150",2,"m",22,"fl","2024-05-08_20h30.17.304","Visual_search_sk","2023.2.3","MacIntel",29.94011976,NA,NA,NA,NA,NA,NA,NA,"","",NA,NA,NA,NA,NA,42,"phone",28,"сделать телефонный звонок",1,1,2,"[-0.09443999999999997,0.28890000000000005]",-72.76953125,293.1914063,1,0,0,2.2314,1,"target","[-0.09443999999999997,0.28890000000000005]",69,0,69,0,1,NA,NA
"151",2,"m",22,"fl","2024-05-08_20h30.17.304","Visual_search_sk","2023.2.3","MacIntel",29.94011976,NA,NA,NA,NA,NA,NA,NA,"","",NA,NA,NA,NA,NA,86,"wallet",39,"посмотреть свои скидочные и дебетовые карты",0,0,3,"[0.19353000000000004,-0.18980999999999998]",159.4570313,-224.4804688,1,0,0,4.4838,1,"target","[0.19353000000000004,-0.18980999999999998]",70,0,70,0,1,NA,NA
"152",2,"m",22,"fl","2024-05-08_20h30.17.304","Visual_search_sk","2023.2.3","MacIntel",29.94011976,NA,NA,NA,NA,NA,NA,NA,"","",NA,NA,NA,NA,NA,61,"phone",28,"сделать телефонный звонок",1,1,3,"[0.19353000000000004,0.19353000000000004]",231.0234375,200.1796875,1,0,0,1.1165,1,"target","[0.19353000000000004,0.19353000000000004]",71,0,71,0,1,NA,NA
"153",2,"m",22,"fl","2024-05-08_20h30.17.304","Visual_search_sk","2023.2.3","MacIntel",29.94011976,NA,NA,NA,NA,NA,NA,NA,"","",NA,NA,NA,NA,NA,75,"ruler",30,"измерить длину предмета",0,0,3,"[0.38520000000000004,-0.18980999999999998]",409.1601563,-229.53125,1,0,0,1.8336,1,"target","[0.38520000000000004,-0.18980999999999998]",72,0,72,0,1,NA,NA
"154",2,"m",22,"fl","2024-05-08_20h30.17.304","Visual_search_sk","2023.2.3","MacIntel",29.94011976,NA,NA,NA,NA,NA,NA,NA,"","",NA,NA,NA,NA,NA,70,"notebook",26,"сделать заметку",1,0,3,"[0.38520000000000004,0.19353000000000004]",420.2304688,191.6757813,1,0,0,5.5948,1,"target","[0.38520000000000004,0.19353000000000004]",74,0,74,0,1,NA,NA
"155",2,"m",22,"fl","2024-05-08_20h30.17.304","Visual_search_sk","2023.2.3","MacIntel",29.94011976,NA,NA,NA,NA,NA,NA,NA,"","",NA,NA,NA,NA,NA,29,"wallet",39,"посмотреть свои скидочные и дебетовые карты",0,0,1,"[-0.19167,0.19167]",-215.3945313,238.875,1,0,0,1.8473,1,"target","[-0.19167,0.19167]",75,0,75,0,1,NA,NA
"156",2,"m",22,"fl","2024-05-08_20h30.17.304","Visual_search_sk","2023.2.3","MacIntel",29.94011976,NA,NA,NA,NA,NA,NA,NA,"","",NA,NA,NA,NA,NA,0,"time",35,"посмотреть, сколько времени во Владивостоке",1,1,1,"[-0.19167,0]",-196.4609375,24.7265625,1,0,0,0.9648,1,"target","[-0.19167,0]",76,0,76,0,1,NA,NA
"157",2,"m",22,"fl","2024-05-08_20h30.17.304","Visual_search_sk","2023.2.3","MacIntel",29.94011976,NA,NA,NA,NA,NA,NA,NA,"","",NA,NA,NA,NA,NA,76,"download",14,"открыть скачанный файл",0,0,3,"[-0.38148,0.0018600000000000283]",-380.4296875,-11.359375,1,0,0,6.9375,1,"target","[-0.38148,0.0018600000000000283]",77,0,77,0,1,NA,NA
"158",2,"m",22,"fl","2024-05-08_20h30.17.304","Visual_search_sk","2023.2.3","MacIntel",29.94011976,NA,NA,NA,NA,NA,NA,NA,"","",NA,NA,NA,NA,NA,80,"files",17,"открыть файл, хранящийся на устройстве",0,1,3,"[-0.18980999999999998,0.19353000000000004]",-157.2773438,211.0351563,1,0,0,1.2173,1,"target","[-0.18980999999999998,0.19353000000000004]",78,0,78,0,1,NA,NA
"159",2,"m",22,"fl","2024-05-08_20h30.17.304","Visual_search_sk","2023.2.3","MacIntel",29.94011976,NA,NA,NA,NA,NA,NA,NA,"","",NA,NA,NA,NA,NA,68,"maps",22,"узнать, где находится ближайший продуктовый магазин",1,1,3,"[-0.18980999999999998,0.0018600000000000283]",-221.375,48.1328125,1,0,0,1.5253,1,"target","[-0.18980999999999998,0.0018600000000000283]",79,0,79,0,1,NA,NA
"160",2,"m",22,"fl","2024-05-08_20h30.17.304","Visual_search_sk","2023.2.3","MacIntel",29.94011976,NA,NA,NA,NA,NA,NA,NA,"","",NA,NA,NA,NA,NA,36,"email",16,"проверить электронную почту",1,1,2,"[0.28890000000000005,-0.09443999999999997]",280.6171875,-108.3515625,1,0,0,1.5084,1,"target","[0.28890000000000005,-0.09443999999999997]",80,0,80,0,1,NA,NA
"161",2,"m",22,"fl","2024-05-08_20h30.17.304","Visual_search_sk","2023.2.3","MacIntel",29.94011976,NA,NA,NA,NA,NA,NA,NA,"","",NA,NA,NA,NA,NA,88,"translator",37,"перевести текст",0,1,3,"[0.19353000000000004,0.0018600000000000283]",224.125,-4.6328125,1,0,0,0.7961,1,"target","[0.19353000000000004,0.0018600000000000283]",81,0,81,0,1,NA,NA
"162",2,"m",22,"fl","2024-05-08_20h30.17.304","Visual_search_sk","2023.2.3","MacIntel",29.94011976,NA,NA,NA,NA,NA,NA,NA,"","",NA,NA,NA,NA,NA,43,"music",25,"послушать музыку",1,1,2,"[0.09723000000000004,0.28890000000000005]",148.3242188,315.3203125,1,0,0,1.2296,1,"target","[0.09723000000000004,0.28890000000000005]",82,0,82,0,1,NA,NA
"163",2,"m",22,"fl","2024-05-08_20h30.17.304","Visual_search_sk","2023.2.3","MacIntel",29.94011976,NA,NA,NA,NA,NA,NA,NA,"","",NA,NA,NA,NA,NA,1,"notebook",26,"сделать заметку",1,0,1,"[0,0.19167]",17.4140625,185.375,1,0,0,0.8971,1,"target","[0,0.19167]",83,0,83,0,1,NA,NA
"164",2,"m",22,"fl","2024-05-08_20h30.17.304","Visual_search_sk","2023.2.3","MacIntel",29.94011976,NA,NA,NA,NA,NA,NA,NA,"","",NA,NA,NA,NA,NA,35,"maps",22,"узнать, где находится ближайший продуктовый магазин",1,1,2,"[-0.28611,0.09723000000000004]",-276.6992188,120.9257813,1,0,0,3.8167,1,"target","[-0.28611,0.09723000000000004]",84,0,84,0,1,NA,NA
"165",2,"m",22,"fl","2024-05-08_20h30.17.304","Visual_search_sk","2023.2.3","MacIntel",29.94011976,NA,NA,NA,NA,NA,NA,NA,"","",NA,NA,NA,NA,NA,2,"train",36,"приобрести билеты на поезд",1,0,1,"[0.19167,0.19167]",224.5,205.734375,1,0,0,3.9641,1,"target","[0.19167,0.19167]",85,0,85,0,1,NA,NA
"166",2,"m",22,"fl","2024-05-08_20h30.17.304","Visual_search_sk","2023.2.3","MacIntel",29.94011976,NA,NA,NA,NA,NA,NA,NA,"","",NA,NA,NA,NA,NA,52,"air",1,"приобрести билеты на самолет",0,0,2,"[-0.09443999999999997,0.28890000000000005]",-101.4023438,268.5664063,1,0,0,1.2059,1,"target","[-0.09443999999999997,0.28890000000000005]",86,0,86,0,1,NA,NA
"167",2,"m",22,"fl","2024-05-08_20h30.17.304","Visual_search_sk","2023.2.3","MacIntel",29.94011976,NA,NA,NA,NA,NA,NA,NA,"","",NA,NA,NA,NA,NA,44,"notebook",26,"сделать заметку",1,0,2,"[-0.28611,0.09723000000000004]",-329.7578125,72.390625,1,0,0,1.1673,1,"target","[-0.28611,0.09723000000000004]",87,0,87,0,1,NA,NA
"168",2,"m",22,"fl","2024-05-08_20h30.17.304","Visual_search_sk","2023.2.3","MacIntel",29.94011976,NA,NA,NA,NA,NA,NA,NA,"","",NA,NA,NA,NA,NA,41,"weather",40,"узнать погоду на завтра",1,1,2,"[-0.09443999999999997,-0.09443999999999997]",-148.8515625,-107.0898438,1,0,0,3.8322,1,"target","[-0.09443999999999997,-0.09443999999999997]",88,0,88,0,1,NA,NA
"169",2,"m",22,"fl","2024-05-08_20h30.17.304","Visual_search_sk","2023.2.3","MacIntel",29.94011976,NA,NA,NA,NA,NA,NA,NA,"","",NA,NA,NA,NA,NA,37,"calendar",7,"узнать на какой день недели выпадает мой день рождения",1,1,2,"[0.09723000000000004,-0.09443999999999997]",138.9804688,-98.1484375,1,0,0,1.757,1,"target","[0.09723000000000004,-0.09443999999999997]",89,0,89,0,1,NA,NA
"170",3,"m",22,"fl","2024-05-01_20h10.53.161","Visual_search_sk","2023.2.3","Win32",59.88023952,NA,NA,NA,NA,NA,NA,NA,"","",NA,NA,NA,NA,NA,49,"files",17,"открыть файл, хранящийся на устройстве",0,1,2,"[0.09723000000000004,0.09723000000000004]",118.4000244,80.79998779,1,0,0,1.0934,1,"target","[0.09723000000000004,0.09723000000000004]",0,0,0,0,1,NA,NA
"171",3,"m",22,"fl","2024-05-01_20h10.53.161","Visual_search_sk","2023.2.3","Win32",59.88023952,NA,NA,NA,NA,NA,NA,NA,"","",NA,NA,NA,NA,NA,25,"book",4,"почитать сохраненную книгу",0,0,1,"[0,0]",-22.39996338,12.79998779,1,0,0,1.0945,1,"target","[0,0]",1,0,1,0,1,NA,NA
"172",3,"m",22,"fl","2024-05-01_20h10.53.161","Visual_search_sk","2023.2.3","Win32",59.88023952,NA,NA,NA,NA,NA,NA,NA,"","",NA,NA,NA,NA,NA,68,"phone",28,"сделать телефонный звонок",1,1,3,"[0.0018600000000000283,-0.18980999999999998]",11.20001221,-231.2000122,1,0,0,1.4299,1,"target","[0.0018600000000000283,-0.18980999999999998]",3,0,3,0,1,NA,NA
"173",3,"m",22,"fl","2024-05-01_20h10.53.161","Visual_search_sk","2023.2.3","Win32",59.88023952,NA,NA,NA,NA,NA,NA,NA,"","",NA,NA,NA,NA,NA,18,"dictaphone",12,"записать свой голос",0,0,1,"[-0.19167,0.19167]",-165.5999756,175.1999817,1,0,0,1.8254,1,"target","[-0.19167,0.19167]",4,0,4,0,1,NA,NA
"174",3,"m",22,"fl","2024-05-01_20h10.53.161","Visual_search_sk","2023.2.3","Win32",59.88023952,NA,NA,NA,NA,NA,NA,NA,"","",NA,NA,NA,NA,NA,43,"time",35,"посмотреть, сколько времени во Владивостоке",1,1,2,"[-0.09443999999999997,-0.09443999999999997]",-94.39996338,-108.7999878,1,0,0,2.1154,1,"target","[-0.09443999999999997,-0.09443999999999997]",5,0,5,0,1,NA,NA
"175",3,"m",22,"fl","2024-05-01_20h10.53.161","Visual_search_sk","2023.2.3","Win32",59.88023952,NA,NA,NA,NA,NA,NA,NA,"","",NA,NA,NA,NA,NA,9,"calendar",7,"узнать на какой день недели выпадает мой день рождения",1,1,1,"[0,0.19167]",22.40002441,162.3999939,1,0,0,1.9286,1,"target","[0,0.19167]",8,0,8,0,1,NA,NA
"176",3,"m",22,"fl","2024-05-01_20h10.53.161","Visual_search_sk","2023.2.3","Win32",59.88023952,NA,NA,NA,NA,NA,NA,NA,"","",NA,NA,NA,NA,NA,87,"book",4,"почитать сохраненную книгу",0,0,3,"[0.19353000000000004,0.19353000000000004]",165.6000366,168.7999878,1,0,0,1.4771,1,"target","[0.19353000000000004,0.19353000000000004]",10,0,10,0,1,NA,NA
"177",3,"m",22,"fl","2024-05-01_20h10.53.161","Visual_search_sk","2023.2.3","Win32",59.88023952,NA,NA,NA,NA,NA,NA,NA,"","",NA,NA,NA,NA,NA,42,"phone",28,"сделать телефонный звонок",1,1,2,"[0.28890000000000005,0.28890000000000005]",285.5999756,303.1999969,1,0,0,2.1817,1,"target","[0.28890000000000005,0.28890000000000005]",11,0,11,0,1,NA,NA
"178",3,"m",22,"fl","2024-05-01_20h10.53.161","Visual_search_sk","2023.2.3","Win32",59.88023952,NA,NA,NA,NA,NA,NA,NA,"","",NA,NA,NA,NA,NA,60,"time",35,"посмотреть, сколько времени во Владивостоке",1,1,3,"[0.19353000000000004,0.0018600000000000283]",198.4000244,-20,1,0,0,1.6766,1,"target","[0.19353000000000004,0.0018600000000000283]",12,0,12,0,1,NA,NA
"179",3,"m",22,"fl","2024-05-01_20h10.53.161","Visual_search_sk","2023.2.3","Win32",59.88023952,NA,NA,NA,NA,NA,NA,NA,"","",NA,NA,NA,NA,NA,3,"email",16,"проверить электронную почту",1,1,1,"[0.19167,0]",157.6000366,-23.20001221,1,0,0,1.0928,1,"target","[0.19167,0]",14,0,14,0,1,NA,NA
"180",3,"m",22,"fl","2024-05-01_20h10.53.161","Visual_search_sk","2023.2.3","Win32",59.88023952,NA,NA,NA,NA,NA,NA,NA,"","",NA,NA,NA,NA,NA,6,"taxi",34,"заказать такси",1,0,1,"[0.19167,-0.19167]",196.7999878,-185.6000366,1,0,0,0.867,1,"target","[0.19167,-0.19167]",15,0,15,0,1,NA,NA
"181",3,"m",22,"fl","2024-05-01_20h10.53.161","Visual_search_sk","2023.2.3","Win32",59.88023952,NA,NA,NA,NA,NA,NA,NA,"","",NA,NA,NA,NA,NA,82,"bank",3,"узнать курс доллара и купить его",0,1,3,"[-0.38148,-0.18980999999999998]",-362.3999939,-185.6000366,1,0,0,2.7652,1,"target","[-0.38148,-0.18980999999999998]",16,0,16,0,1,NA,NA
"182",3,"m",22,"fl","2024-05-01_20h10.53.161","Visual_search_sk","2023.2.3","Win32",59.88023952,NA,NA,NA,NA,NA,NA,NA,"","",NA,NA,NA,NA,NA,54,"compass",10,"узнать, в какой стороне света Юг",0,0,2,"[0.28890000000000005,0.09723000000000004]",299.2000732,94.3999939,1,0,0,2.8139,1,"target","[0.28890000000000005,0.09723000000000004]",17,0,17,0,1,NA,NA
"183",3,"m",22,"fl","2024-05-01_20h10.53.161","Visual_search_sk","2023.2.3","Win32",59.88023952,NA,NA,NA,NA,NA,NA,NA,"","",NA,NA,NA,NA,NA,31,"email",16,"проверить электронную почту",1,1,2,"[-0.28611,0.28890000000000005]",-254.3999634,257.5999908,1,0,0,3.6436,1,"target","[-0.28611,0.28890000000000005]",18,0,18,0,1,NA,NA
"184",3,"m",22,"fl","2024-05-01_20h10.53.161","Visual_search_sk","2023.2.3","Win32",59.88023952,NA,NA,NA,NA,NA,NA,NA,"","",NA,NA,NA,NA,NA,0,"messager",23,"отправить сообщение",1,1,1,"[-0.19167,0]",-181.5999756,-4,1,0,0,1.3937,1,"target","[-0.19167,0]",19,0,19,0,1,NA,NA
"185",3,"m",22,"fl","2024-05-01_20h10.53.161","Visual_search_sk","2023.2.3","Win32",59.88023952,NA,NA,NA,NA,NA,NA,NA,"","",NA,NA,NA,NA,NA,56,"bank",3,"узнать курс доллара и купить его",0,1,2,"[-0.09443999999999997,-0.09443999999999997]",-77.59997559,-131.2000122,1,0,0,1.0106,1,"target","[-0.09443999999999997,-0.09443999999999997]",20,0,20,0,1,NA,NA
"186",3,"m",22,"fl","2024-05-01_20h10.53.161","Visual_search_sk","2023.2.3","Win32",59.88023952,NA,NA,NA,NA,NA,NA,NA,"","",NA,NA,NA,NA,NA,13,"calculator",6,"разделить число на 3",1,1,1,"[0,0.19167]",6.400024414,155.1999817,1,0,0,1.2312,1,"target","[0,0.19167]",21,0,21,0,1,NA,NA
"187",3,"m",22,"fl","2024-05-01_20h10.53.161","Visual_search_sk","2023.2.3","Win32",59.88023952,NA,NA,NA,NA,NA,NA,NA,"","",NA,NA,NA,NA,NA,8,"phone",28,"сделать телефонный звонок",1,1,1,"[-0.19167,-0.19167]",-156,-157.6000366,1,0,0,0.8264,1,"target","[-0.19167,-0.19167]",22,0,22,0,1,NA,NA
"188",3,"m",22,"fl","2024-05-01_20h10.53.161","Visual_search_sk","2023.2.3","Win32",59.88023952,NA,NA,NA,NA,NA,NA,NA,"","",NA,NA,NA,NA,NA,74,"email",16,"проверить электронную почту",1,1,3,"[-0.38148,-0.38148]",-351.1999817,-358.4000244,1,0,0,2.4262,1,"target","[-0.38148,-0.38148]",23,0,23,0,1,NA,NA
"189",3,"m",22,"fl","2024-05-01_20h10.53.161","Visual_search_sk","2023.2.3","Win32",59.88023952,NA,NA,NA,NA,NA,NA,NA,"","",NA,NA,NA,NA,NA,88,"dictaphone",12,"записать свой голос",0,0,3,"[-0.18980999999999998,0.19353000000000004]",-140,189.6000061,1,0,0,1.1591,1,"target","[-0.18980999999999998,0.19353000000000004]",24,0,24,0,1,NA,NA
"190",3,"m",22,"fl","2024-05-01_20h10.53.161","Visual_search_sk","2023.2.3","Win32",59.88023952,NA,NA,NA,NA,NA,NA,NA,"","",NA,NA,NA,NA,NA,62,"calendar",7,"узнать на какой день недели выпадает мой день рождения",1,1,3,"[-0.38148,-0.18980999999999998]",-363.1999817,-188,1,0,0,1.6761,1,"target","[-0.38148,-0.18980999999999998]",25,0,25,0,1,NA,NA
"191",3,"m",22,"fl","2024-05-01_20h10.53.161","Visual_search_sk","2023.2.3","Win32",59.88023952,NA,NA,NA,NA,NA,NA,NA,"","",NA,NA,NA,NA,NA,19,"metro",24,"открыть схему линий метро",0,0,1,"[0.19167,0]",188.7999878,-4.800018311,1,0,0,1.3473,1,"target","[0.19167,0]",26,0,26,0,1,NA,NA
"192",3,"m",22,"fl","2024-05-01_20h10.53.161","Visual_search_sk","2023.2.3","Win32",59.88023952,NA,NA,NA,NA,NA,NA,NA,"","",NA,NA,NA,NA,NA,50,"planner",29,"создать маркированный список планов на день",0,0,2,"[-0.09443999999999997,0.28890000000000005]",-68,284,1,0,0,2.0636,1,"target","[-0.09443999999999997,0.28890000000000005]",28,0,28,0,1,NA,NA
"193",3,"m",22,"fl","2024-05-01_20h10.53.161","Visual_search_sk","2023.2.3","Win32",59.88023952,NA,NA,NA,NA,NA,NA,NA,"","",NA,NA,NA,NA,NA,28,"ruler",30,"измерить длину предмета",0,0,1,"[0,0]",39.20001221,-16.80001831,1,0,0,0.6924,1,"target","[0,0]",29,0,29,0,1,NA,NA
"194",3,"m",22,"fl","2024-05-01_20h10.53.161","Visual_search_sk","2023.2.3","Win32",59.88023952,NA,NA,NA,NA,NA,NA,NA,"","",NA,NA,NA,NA,NA,17,"bank",3,"узнать курс доллара и купить его",0,1,1,"[0.19167,-0.19167]",172,-201.6000366,1,0,0,0.9273,1,"target","[0.19167,-0.19167]",30,0,30,0,1,NA,NA
"195",3,"m",22,"fl","2024-05-01_20h10.53.161","Visual_search_sk","2023.2.3","Win32",59.88023952,NA,NA,NA,NA,NA,NA,NA,"","",NA,NA,NA,NA,NA,34,"train",36,"приобрести билеты на поезд",1,0,2,"[0.09723000000000004,-0.28611]",107.2000122,-296.7999878,1,0,0,3.0128,1,"target","[0.09723000000000004,-0.28611]",31,0,31,0,1,NA,NA
"196",3,"m",22,"fl","2024-05-01_20h10.53.161","Visual_search_sk","2023.2.3","Win32",59.88023952,NA,NA,NA,NA,NA,NA,NA,"","",NA,NA,NA,NA,NA,22,"files",17,"открыть файл, хранящийся на устройстве",0,1,1,"[0.19167,-0.19167]",223.2000122,-198.4000244,1,0,0,0.8757,1,"target","[0.19167,-0.19167]",32,0,32,0,1,NA,NA
"197",3,"m",22,"fl","2024-05-01_20h10.53.161","Visual_search_sk","2023.2.3","Win32",59.88023952,NA,NA,NA,NA,NA,NA,NA,"","",NA,NA,NA,NA,NA,4,"weather",40,"узнать погоду на завтра",1,1,1,"[0.19167,0]",165.6000366,2.399993896,1,0,0,1.497,1,"target","[0.19167,0]",34,0,34,0,1,NA,NA
"198",3,"m",22,"fl","2024-05-01_20h10.53.161","Visual_search_sk","2023.2.3","Win32",59.88023952,NA,NA,NA,NA,NA,NA,NA,"","",NA,NA,NA,NA,NA,10,"camera",8,"сделать фотоснимок",1,1,1,"[-0.19167,-0.19167]",-193.5999756,-212.7999878,1,0,0,2.0168,1,"target","[-0.19167,-0.19167]",35,0,35,0,1,NA,NA
"199",3,"m",22,"fl","2024-05-01_20h10.53.161","Visual_search_sk","2023.2.3","Win32",59.88023952,NA,NA,NA,NA,NA,NA,NA,"","",NA,NA,NA,NA,NA,5,"train",36,"приобрести билеты на поезд",1,0,1,"[0,0]",4.799987793,-12.80001831,1,0,0,0.7476,1,"target","[0,0]",36,0,36,0,1,NA,NA
"200",3,"m",22,"fl","2024-05-01_20h10.53.161","Visual_search_sk","2023.2.3","Win32",59.88023952,NA,NA,NA,NA,NA,NA,NA,"","",NA,NA,NA,NA,NA,1,"music",25,"послушать музыку",1,1,1,"[0.19167,-0.19167]",180,-180,1,0,0,1.0091,1,"target","[0.19167,-0.19167]",37,0,37,0,1,NA,NA
"201",3,"m",22,"fl","2024-05-01_20h10.53.161","Visual_search_sk","2023.2.3","Win32",59.88023952,NA,NA,NA,NA,NA,NA,NA,"","",NA,NA,NA,NA,NA,58,"book",4,"почитать сохраненную книгу",0,0,2,"[-0.09443999999999997,0.09723000000000004]",-108,120,1,0,0,2.2798,1,"target","[-0.09443999999999997,0.09723000000000004]",38,0,38,0,1,NA,NA
"202",3,"m",22,"fl","2024-05-01_20h10.53.161","Visual_search_sk","2023.2.3","Win32",59.88023952,NA,NA,NA,NA,NA,NA,NA,"","",NA,NA,NA,NA,NA,24,"download",14,"открыть скачанный файл",0,0,1,"[0.19167,0]",163.2000122,24,1,0,0,0.9615,1,"target","[0.19167,0]",39,0,39,0,1,NA,NA
"203",3,"m",22,"fl","2024-05-01_20h10.53.161","Visual_search_sk","2023.2.3","Win32",59.88023952,NA,NA,NA,NA,NA,NA,NA,"","",NA,NA,NA,NA,NA,33,"gallery",19,"посмотреть сделанные фотографии",1,1,2,"[0.28890000000000005,-0.28611]",275.2000732,-316.7999878,1,0,0,3.9183,1,"target","[0.28890000000000005,-0.28611]",40,0,40,0,1,NA,NA
"204",3,"m",22,"fl","2024-05-01_20h10.53.161","Visual_search_sk","2023.2.3","Win32",59.88023952,NA,NA,NA,NA,NA,NA,NA,"","",NA,NA,NA,NA,NA,63,"music",25,"послушать музыку",1,1,3,"[0.19353000000000004,0.0018600000000000283]",203.2000122,2.399993896,1,0,0,3.3674,1,"target","[0.19353000000000004,0.0018600000000000283]",41,0,41,0,1,NA,NA
"205",3,"m",22,"fl","2024-05-01_20h10.53.161","Visual_search_sk","2023.2.3","Win32",59.88023952,NA,NA,NA,NA,NA,NA,NA,"","",NA,NA,NA,NA,NA,80,"air",1,"приобрести билеты на самолет",0,0,3,"[0.19353000000000004,-0.18980999999999998]",202.4000244,-204,1,0,0,3.3448,1,"target","[0.19353000000000004,-0.18980999999999998]",42,0,42,0,1,NA,NA
"206",3,"m",22,"fl","2024-05-01_20h10.53.161","Visual_search_sk","2023.2.3","Win32",59.88023952,NA,NA,NA,NA,NA,NA,NA,"","",NA,NA,NA,NA,NA,69,"taxi",34,"заказать такси",1,0,3,"[0.38520000000000004,-0.18980999999999998]",382.4000244,-175.2000122,1,0,0,3.1932,1,"target","[0.38520000000000004,-0.18980999999999998]",43,0,43,0,1,NA,NA
"207",3,"m",22,"fl","2024-05-01_20h10.53.161","Visual_search_sk","2023.2.3","Win32",59.88023952,NA,NA,NA,NA,NA,NA,NA,"","",NA,NA,NA,NA,NA,14,"notebook",26,"сделать заметку",1,0,1,"[-0.19167,0.19167]",-175.2000122,187.1999817,1,0,0,2.1118,1,"target","[-0.19167,0.19167]",44,0,44,0,1,NA,NA
"208",3,"m",22,"fl","2024-05-01_20h10.53.161","Visual_search_sk","2023.2.3","Win32",59.88023952,NA,NA,NA,NA,NA,NA,NA,"","",NA,NA,NA,NA,NA,85,"ruler",30,"измерить длину предмета",0,0,3,"[0.38520000000000004,0.38520000000000004]",321.5999756,355.1999969,1,0,0,2.1517,1,"target","[0.38520000000000004,0.38520000000000004]",45,0,45,0,1,NA,NA
"209",3,"m",22,"fl","2024-05-01_20h10.53.161","Visual_search_sk","2023.2.3","Win32",59.88023952,NA,NA,NA,NA,NA,NA,NA,"","",NA,NA,NA,NA,NA,23,"documents",13,"открыть сохраненные офисные документы",0,0,1,"[0.19167,-0.19167]",157.6000366,-169.6000366,1,0,0,1.8433,1,"target","[0.19167,-0.19167]",46,0,46,0,1,NA,NA
"210",3,"m",22,"fl","2024-05-01_20h10.53.161","Visual_search_sk","2023.2.3","Win32",59.88023952,NA,NA,NA,NA,NA,NA,NA,"","",NA,NA,NA,NA,NA,55,"metro",24,"открыть схему линий метро",0,0,2,"[-0.09443999999999997,0.09723000000000004]",-79.20001221,76,1,0,0,0.9435,1,"target","[-0.09443999999999997,0.09723000000000004]",47,0,47,0,1,NA,NA
"211",3,"m",22,"fl","2024-05-01_20h10.53.161","Visual_search_sk","2023.2.3","Win32",59.88023952,NA,NA,NA,NA,NA,NA,NA,"","",NA,NA,NA,NA,NA,73,"maps",22,"узнать, где находится ближайший продуктовый магазин",1,1,3,"[-0.38148,-0.18980999999999998]",-360.7999878,-163.2000122,1,0,0,1.8151,1,"target","[-0.38148,-0.18980999999999998]",48,0,48,0,1,NA,NA
"212",3,"m",22,"fl","2024-05-01_20h10.53.161","Visual_search_sk","2023.2.3","Win32",59.88023952,NA,NA,NA,NA,NA,NA,NA,"","",NA,NA,NA,NA,NA,70,"weather",40,"узнать погоду на завтра",1,1,3,"[0.19353000000000004,-0.38148]",172.7999878,-371.2000122,1,0,0,1.7824,1,"target","[0.19353000000000004,-0.38148]",49,0,49,0,1,NA,NA
"213",3,"m",22,"fl","2024-05-01_20h10.53.161","Visual_search_sk","2023.2.3","Win32",59.88023952,NA,NA,NA,NA,NA,NA,NA,"","",NA,NA,NA,NA,NA,61,"messager",23,"отправить сообщение",1,1,3,"[-0.18980999999999998,0.19353000000000004]",-185.5999756,184.7999878,1,0,0,3.7654,1,"target","[-0.18980999999999998,0.19353000000000004]",50,0,50,0,1,NA,NA
"214",3,"m",22,"fl","2024-05-01_20h10.53.161","Visual_search_sk","2023.2.3","Win32",59.88023952,NA,NA,NA,NA,NA,NA,NA,"","",NA,NA,NA,NA,NA,16,"planner",29,"создать маркированный список планов на день",0,0,1,"[0.19167,-0.19167]",185.6000366,-149.6000366,1,0,0,2.1693,1,"target","[0.19167,-0.19167]",51,0,51,0,1,NA,NA
"215",3,"m",22,"fl","2024-05-01_20h10.53.161","Visual_search_sk","2023.2.3","Win32",59.88023952,NA,NA,NA,NA,NA,NA,NA,"","",NA,NA,NA,NA,NA,37,"calendar",7,"узнать на какой день недели выпадает мой день рождения",1,1,2,"[0.09723000000000004,-0.28611]",82.40002441,-290.4000244,1,0,0,2.6432,1,"target","[0.09723000000000004,-0.28611]",52,0,52,0,1,NA,NA
"216",3,"m",22,"fl","2024-05-01_20h10.53.161","Visual_search_sk","2023.2.3","Win32",59.88023952,NA,NA,NA,NA,NA,NA,NA,"","",NA,NA,NA,NA,NA,51,"store",33,"совершить заказ в продуктовом магазине",0,0,2,"[-0.28611,-0.09443999999999997]",-306.3999939,-80,1,0,0,2.0881,1,"target","[-0.28611,-0.09443999999999997]",53,0,53,0,1,NA,NA
"217",3,"m",22,"fl","2024-05-01_20h10.53.161","Visual_search_sk","2023.2.3","Win32",59.88023952,NA,NA,NA,NA,NA,NA,NA,"","",NA,NA,NA,NA,NA,30,"calculator",6,"разделить число на 3",1,1,2,"[0.09723000000000004,0.09723000000000004]",98.40002441,129.6000061,1,0,0,2.8769,1,"target","[0.09723000000000004,0.09723000000000004]",54,0,54,0,1,NA,NA
"218",3,"m",22,"fl","2024-05-01_20h10.53.161","Visual_search_sk","2023.2.3","Win32",59.88023952,NA,NA,NA,NA,NA,NA,NA,"","",NA,NA,NA,NA,NA,89,"planner",29,"создать маркированный список планов на день",0,0,3,"[0.0018600000000000283,-0.18980999999999998]",-18.39996338,-207.2000122,1,0,0,4.1947,1,"target","[0.0018600000000000283,-0.18980999999999998]",55,0,55,0,1,NA,NA
"219",3,"m",22,"fl","2024-05-01_20h10.53.161","Visual_search_sk","2023.2.3","Win32",59.88023952,NA,NA,NA,NA,NA,NA,NA,"","",NA,NA,NA,NA,NA,48,"wallet",39,"посмотреть свои скидочные и дебетовые карты",0,0,2,"[0.09723000000000004,-0.28611]",96.79998779,-269.6000366,1,0,0,1.1281,1,"target","[0.09723000000000004,-0.28611]",56,0,56,0,1,NA,NA
"220",3,"m",22,"fl","2024-05-01_20h10.53.161","Visual_search_sk","2023.2.3","Win32",59.88023952,NA,NA,NA,NA,NA,NA,NA,"","",NA,NA,NA,NA,NA,41,"maps",22,"узнать, где находится ближайший продуктовый магазин",1,1,2,"[0.28890000000000005,0.28890000000000005]",265.5999756,280,1,0,0,1.5774,1,"target","[0.28890000000000005,0.28890000000000005]",57,0,57,0,1,NA,NA
"221",3,"m",22,"fl","2024-05-01_20h10.53.161","Visual_search_sk","2023.2.3","Win32",59.88023952,NA,NA,NA,NA,NA,NA,NA,"","",NA,NA,NA,NA,NA,15,"translator",37,"перевести текст",0,1,1,"[0.19167,0]",197.6000366,2.399993896,1,0,0,1.2987,1,"target","[0.19167,0]",59,0,59,0,1,NA,NA
"222",3,"m",22,"fl","2024-05-01_20h10.53.161","Visual_search_sk","2023.2.3","Win32",59.88023952,NA,NA,NA,NA,NA,NA,NA,"","",NA,NA,NA,NA,NA,21,"wallet",39,"посмотреть свои скидочные и дебетовые карты",0,0,1,"[0.19167,-0.19167]",162.4000244,-204,1,0,0,0.7476,1,"target","[0.19167,-0.19167]",60,0,60,0,1,NA,NA
"223",3,"m",22,"fl","2024-05-01_20h10.53.161","Visual_search_sk","2023.2.3","Win32",59.88023952,NA,NA,NA,NA,NA,NA,NA,"","",NA,NA,NA,NA,NA,79,"files",17,"открыть файл, хранящийся на устройстве",0,1,3,"[0.19353000000000004,-0.38148]",182.4000244,-384,1,0,0,1.9268,1,"target","[0.19353000000000004,-0.38148]",61,0,61,0,1,NA,NA
"224",3,"m",22,"fl","2024-05-01_20h10.53.161","Visual_search_sk","2023.2.3","Win32",59.88023952,NA,NA,NA,NA,NA,NA,NA,"","",NA,NA,NA,NA,NA,84,"browser",5,"выйти в интернет",0,1,3,"[0.38520000000000004,0.38520000000000004]",381.5999756,372.7999954,1,0,0,2.7496,1,"target","[0.38520000000000004,0.38520000000000004]",62,0,62,0,1,NA,NA
"225",3,"m",22,"fl","2024-05-01_20h10.53.161","Visual_search_sk","2023.2.3","Win32",59.88023952,NA,NA,NA,NA,NA,NA,NA,"","",NA,NA,NA,NA,NA,67,"notebook",26,"сделать заметку",1,0,3,"[0.38520000000000004,0.38520000000000004]",355.2000732,356,1,0,0,2.3778,1,"target","[0.38520000000000004,0.38520000000000004]",63,0,63,0,1,NA,NA
"226",3,"m",22,"fl","2024-05-01_20h10.53.161","Visual_search_sk","2023.2.3","Win32",59.88023952,NA,NA,NA,NA,NA,NA,NA,"","",NA,NA,NA,NA,NA,44,"settings",31,"изменить настройки устройства",1,1,2,"[0.28890000000000005,-0.09443999999999997]",253.6000366,-79.20001221,1,0,0,1.7651,1,"target","[0.28890000000000005,-0.09443999999999997]",64,0,64,0,1,NA,NA
"227",3,"m",22,"fl","2024-05-01_20h10.53.161","Visual_search_sk","2023.2.3","Win32",59.88023952,NA,NA,NA,NA,NA,NA,NA,"","",NA,NA,NA,NA,NA,83,"documents",13,"открыть сохраненные офисные документы",0,0,3,"[-0.18980999999999998,0.19353000000000004]",-159.2000122,173.6000061,1,0,0,1.8814,1,"target","[-0.18980999999999998,0.19353000000000004]",66,0,66,0,1,NA,NA
"228",3,"m",22,"fl","2024-05-01_20h10.53.161","Visual_search_sk","2023.2.3","Win32",59.88023952,NA,NA,NA,NA,NA,NA,NA,"","",NA,NA,NA,NA,NA,38,"messager",23,"отправить сообщение",1,1,2,"[-0.28611,0.09723000000000004]",-287.1999817,82.3999939,1,0,0,3.6987,1,"target","[-0.28611,0.09723000000000004]",67,0,67,0,1,NA,NA
"229",3,"m",22,"fl","2024-05-01_20h10.53.161","Visual_search_sk","2023.2.3","Win32",59.88023952,NA,NA,NA,NA,NA,NA,NA,"","",NA,NA,NA,NA,NA,11,"time",35,"посмотреть, сколько времени во Владивостоке",1,1,1,"[0,0]",29.60003662,-15.20001221,1,0,0,1.8647,1,"target","[0,0]",68,0,68,0,1,NA,NA
"230",3,"m",22,"fl","2024-05-01_20h10.53.161","Visual_search_sk","2023.2.3","Win32",59.88023952,NA,NA,NA,NA,NA,NA,NA,"","",NA,NA,NA,NA,NA,75,"download",14,"открыть скачанный файл",0,0,3,"[-0.38148,-0.38148]",-371.1999817,-346.4000244,1,0,0,2.1985,1,"target","[-0.38148,-0.38148]",69,0,69,0,1,NA,NA
"231",3,"m",22,"fl","2024-05-01_20h10.53.161","Visual_search_sk","2023.2.3","Win32",59.88023952,NA,NA,NA,NA,NA,NA,NA,"","",NA,NA,NA,NA,NA,77,"wallet",39,"посмотреть свои скидочные и дебетовые карты",0,0,3,"[0.19353000000000004,0.19353000000000004]",181.6000366,184.7999878,1,0,0,1.8794,1,"target","[0.19353000000000004,0.19353000000000004]",70,0,70,0,1,NA,NA
"232",3,"m",22,"fl","2024-05-01_20h10.53.161","Visual_search_sk","2023.2.3","Win32",59.88023952,NA,NA,NA,NA,NA,NA,NA,"","",NA,NA,NA,NA,NA,78,"compass",10,"узнать, в какой стороне света Юг",0,0,3,"[0.19353000000000004,-0.18980999999999998]",187.2000122,-168,1,0,0,2.2607,1,"target","[0.19353000000000004,-0.18980999999999998]",71,0,71,0,1,NA,NA
"233",3,"m",22,"fl","2024-05-01_20h10.53.161","Visual_search_sk","2023.2.3","Win32",59.88023952,NA,NA,NA,NA,NA,NA,NA,"","",NA,NA,NA,NA,NA,81,"metro",24,"открыть схему линий метро",0,0,3,"[-0.18980999999999998,-0.18980999999999998]",-154.3999634,-148,1,0,0,1.3443,1,"target","[-0.18980999999999998,-0.18980999999999998]",72,0,72,0,1,NA,NA
"234",3,"m",22,"fl","2024-05-01_20h10.53.161","Visual_search_sk","2023.2.3","Win32",59.88023952,NA,NA,NA,NA,NA,NA,NA,"","",NA,NA,NA,NA,NA,26,"compass",10,"узнать, в какой стороне света Юг",0,0,1,"[0,-0.19167]",4.799987793,-169.6000366,1,0,0,0.914,1,"target","[0,-0.19167]",73,0,73,0,1,NA,NA
"235",3,"m",22,"fl","2024-05-01_20h10.53.161","Visual_search_sk","2023.2.3","Win32",59.88023952,NA,NA,NA,NA,NA,NA,NA,"","",NA,NA,NA,NA,NA,52,"download",14,"открыть скачанный файл",0,0,2,"[0.09723000000000004,0.09723000000000004]",79.20001221,61.6000061,1,0,0,0.8978,1,"target","[0.09723000000000004,0.09723000000000004]",74,0,74,0,1,NA,NA
"236",3,"m",22,"fl","2024-05-01_20h10.53.161","Visual_search_sk","2023.2.3","Win32",59.88023952,NA,NA,NA,NA,NA,NA,NA,"","",NA,NA,NA,NA,NA,39,"notebook",26,"сделать заметку",1,0,2,"[-0.28611,-0.28611]",-260.7999878,-236.7999878,1,0,0,1.6317,1,"target","[-0.28611,-0.28611]",75,0,75,0,1,NA,NA
"237",3,"m",22,"fl","2024-05-01_20h10.53.161","Visual_search_sk","2023.2.3","Win32",59.88023952,NA,NA,NA,NA,NA,NA,NA,"","",NA,NA,NA,NA,NA,20,"editor",15,"отредактировать фото",0,0,1,"[0,-0.19167]",10.40002441,-204.7999878,1,0,0,1.1455,1,"target","[0,-0.19167]",76,0,76,0,1,NA,NA
"238",3,"m",22,"fl","2024-05-01_20h10.53.161","Visual_search_sk","2023.2.3","Win32",59.88023952,NA,NA,NA,NA,NA,NA,NA,"","",NA,NA,NA,NA,NA,36,"music",25,"послушать музыку",1,1,2,"[-0.09443999999999997,-0.09443999999999997]",-101.5999756,-82.40002441,1,0,0,1.7447,1,"target","[-0.09443999999999997,-0.09443999999999997]",77,0,77,0,1,NA,NA
"239",3,"m",22,"fl","2024-05-01_20h10.53.161","Visual_search_sk","2023.2.3","Win32",59.88023952,NA,NA,NA,NA,NA,NA,NA,"","",NA,NA,NA,NA,NA,76,"store",33,"совершить заказ в продуктовом магазине",0,0,3,"[0.38520000000000004,-0.38148]",350.4000244,-366.4000244,1,0,0,3.545,1,"target","[0.38520000000000004,-0.38148]",78,0,78,0,1,NA,NA
"240",3,"m",22,"fl","2024-05-01_20h10.53.161","Visual_search_sk","2023.2.3","Win32",59.88023952,NA,NA,NA,NA,NA,NA,NA,"","",NA,NA,NA,NA,NA,29,"air",1,"приобрести билеты на самолет",0,0,1,"[0.19167,-0.19167]",149.6000366,-183.2000122,1,0,0,2.278,1,"target","[0.19167,-0.19167]",79,0,79,0,1,NA,NA
"241",3,"m",22,"fl","2024-05-01_20h10.53.161","Visual_search_sk","2023.2.3","Win32",59.88023952,NA,NA,NA,NA,NA,NA,NA,"","",NA,NA,NA,NA,NA,2,"maps",22,"узнать, где находится ближайший продуктовый магазин",1,1,1,"[0.19167,0.19167]",190.4000244,213.6000061,1,0,0,1.5281,1,"target","[0.19167,0.19167]",80,0,80,0,1,NA,NA
"242",3,"m",22,"fl","2024-05-01_20h10.53.161","Visual_search_sk","2023.2.3","Win32",59.88023952,NA,NA,NA,NA,NA,NA,NA,"","",NA,NA,NA,NA,NA,12,"settings",31,"изменить настройки устройства",1,1,1,"[0,-0.19167]",-24,-206.4000244,1,0,0,0.8115,1,"target","[0,-0.19167]",81,0,81,0,1,NA,NA
"243",3,"m",22,"fl","2024-05-01_20h10.53.161","Visual_search_sk","2023.2.3","Win32",59.88023952,NA,NA,NA,NA,NA,NA,NA,"","",NA,NA,NA,NA,NA,53,"translator",37,"перевести текст",0,1,2,"[-0.09443999999999997,0.28890000000000005]",-82.39996338,254.3999939,1,0,0,1.094,1,"target","[-0.09443999999999997,0.28890000000000005]",82,0,82,0,1,NA,NA
"244",3,"m",22,"fl","2024-05-01_20h10.53.161","Visual_search_sk","2023.2.3","Win32",59.88023952,NA,NA,NA,NA,NA,NA,NA,"","",NA,NA,NA,NA,NA,59,"editor",15,"отредактировать фото",0,0,2,"[0.09723000000000004,-0.09443999999999997]",136,-92,1,0,0,0.7984,1,"target","[0.09723000000000004,-0.09443999999999997]",83,0,83,0,1,NA,NA
"245",3,"m",22,"fl","2024-05-01_20h10.53.161","Visual_search_sk","2023.2.3","Win32",59.88023952,NA,NA,NA,NA,NA,NA,NA,"","",NA,NA,NA,NA,NA,27,"store",33,"совершить заказ в продуктовом магазине",0,0,1,"[0.19167,-0.19167]",190.4000244,-181.6000366,1,0,0,1.5268,1,"target","[0.19167,-0.19167]",84,0,84,0,1,NA,NA
"246",3,"m",22,"fl","2024-05-01_20h10.53.161","Visual_search_sk","2023.2.3","Win32",59.88023952,NA,NA,NA,NA,NA,NA,NA,"","",NA,NA,NA,NA,NA,7,"gallery",19,"посмотреть сделанные фотографии",1,1,1,"[-0.19167,-0.19167]",-163.2000122,-174.4000244,1,0,0,1.146,1,"target","[-0.19167,-0.19167]",85,0,85,0,1,NA,NA
"247",3,"m",22,"fl","2024-05-01_20h10.53.161","Visual_search_sk","2023.2.3","Win32",59.88023952,NA,NA,NA,NA,NA,NA,NA,"","",NA,NA,NA,NA,NA,40,"weather",40,"узнать погоду на завтра",1,1,2,"[0.28890000000000005,-0.28611]",273.5999756,-303.2000122,1,0,0,2.048,1,"target","[0.28890000000000005,-0.28611]",86,0,86,0,1,NA,NA
"248",3,"m",22,"fl","2024-05-01_20h10.53.161","Visual_search_sk","2023.2.3","Win32",59.88023952,NA,NA,NA,NA,NA,NA,NA,"","",NA,NA,NA,NA,NA,32,"taxi",34,"заказать такси",1,0,2,"[0.09723000000000004,0.28890000000000005]",91.20001221,272,1,0,0,2.4491,1,"target","[0.09723000000000004,0.28890000000000005]",87,0,87,0,1,NA,NA
"249",3,"m",22,"fl","2024-05-01_20h10.53.161","Visual_search_sk","2023.2.3","Win32",59.88023952,NA,NA,NA,NA,NA,NA,NA,"","",NA,NA,NA,NA,NA,45,"ruler",30,"измерить длину предмета",0,0,2,"[0.28890000000000005,0.09723000000000004]",326.4000244,93.6000061,1,0,0,0.9813,1,"target","[0.28890000000000005,0.09723000000000004]",89,0,89,0,1,NA,NA
"250",4,"m",18,"fl","2024-05-08_23h49.23.432","VisuAL2_search_sk","2023.2.3","Win32",60.24096386,NA,NA,NA,NA,NA,NA,NA,"","",NA,NA,NA,NA,NA,83,"files",17,"открыть файл, хранящийся на устройстве",0,1,3,"[0.19353000000000004,-0.18980999999999998]",169.6000366,-166,1,0,0,2.8392,1,"target","[0.19353000000000004,-0.18980999999999998]",0,NA,0,0,1,NA,0
"251",4,"m",18,"fl","2024-05-08_23h49.23.432","VisuAL2_search_sk","2023.2.3","Win32",60.24096386,NA,NA,NA,NA,NA,NA,NA,"","",NA,NA,NA,NA,NA,69,"messager",23,"отправить сообщение",1,1,3,"[0.38520000000000004,-0.18980999999999998]",363.2000732,-160.4000244,1,0,0,5.2003,1,"target","[0.38520000000000004,-0.18980999999999998]",1,NA,1,0,1,NA,0
"252",4,"m",18,"fl","2024-05-08_23h49.23.432","VisuAL2_search_sk","2023.2.3","Win32",60.24096386,NA,NA,NA,NA,NA,NA,NA,"","",NA,NA,NA,NA,NA,29,"air",1,"приобрести билеты на самолет",0,0,1,"[0.19167,0]",165.6000366,-0.399993896,1,0,0,2.5562,1,"target","[0.19167,0]",2,NA,2,0,1,NA,0
"253",4,"m",18,"fl","2024-05-08_23h49.23.432","VisuAL2_search_sk","2023.2.3","Win32",60.24096386,NA,NA,NA,NA,NA,NA,NA,"","",NA,NA,NA,NA,NA,86,"compass",10,"узнать, в какой стороне света Юг",0,0,3,"[0.38520000000000004,0.19353000000000004]",321.5999756,176.3999939,1,0,0,4.1059,1,"target","[0.38520000000000004,0.19353000000000004]",3,NA,3,0,1,NA,0
"254",4,"m",18,"fl","2024-05-08_23h49.23.432","VisuAL2_search_sk","2023.2.3","Win32",60.24096386,NA,NA,NA,NA,NA,NA,NA,"","",NA,NA,NA,NA,NA,56,"dictaphone",12,"записать свой голос",0,0,2,"[-0.09443999999999997,-0.28611]",-75.20001221,-244.4000244,1,0,0,3.2382,1,"target","[-0.09443999999999997,-0.28611]",4,NA,4,0,1,NA,0
"255",4,"m",18,"fl","2024-05-08_23h49.23.432","VisuAL2_search_sk","2023.2.3","Win32",60.24096386,NA,NA,NA,NA,NA,NA,NA,"","",NA,NA,NA,NA,NA,62,"weather",40,"узнать погоду на завтра",1,1,3,"[0.38520000000000004,0.38520000000000004]",339.2000732,324.4000015,1,0,0,5.2702,1,"target","[0.38520000000000004,0.38520000000000004]",6,NA,6,0,1,NA,0
"256",4,"m",18,"fl","2024-05-08_23h49.23.432","VisuAL2_search_sk","2023.2.3","Win32",60.24096386,NA,NA,NA,NA,NA,NA,NA,"","",NA,NA,NA,NA,NA,52,"store",33,"совершить заказ в продуктовом магазине",0,0,2,"[0.28890000000000005,-0.09443999999999997]",264.8000488,-70,1,0,0,2.0907,1,"target","[0.28890000000000005,-0.09443999999999997]",7,NA,7,0,1,NA,0
"257",4,"m",18,"fl","2024-05-08_23h49.23.432","VisuAL2_search_sk","2023.2.3","Win32",60.24096386,NA,NA,NA,NA,NA,NA,NA,"","",NA,NA,NA,NA,NA,76,"editor",15,"отредактировать фото",0,0,3,"[-0.38148,0.19353000000000004]",-346.3999939,150.7999878,1,0,0,1.7052,1,"target","[-0.38148,0.19353000000000004]",9,NA,9,0,1,NA,0
"258",4,"m",18,"fl","2024-05-08_23h49.23.432","VisuAL2_search_sk","2023.2.3","Win32",60.24096386,NA,NA,NA,NA,NA,NA,NA,"","",NA,NA,NA,NA,NA,2,"gAL2lery",19,"посмотреть сделанные фотографии",1,1,1,"[0,0]",-11.20001221,1.199981689,1,0,0,1.3895,1,"target","[0,0]",10,NA,10,0,1,NA,0
"259",4,"m",18,"fl","2024-05-08_23h49.23.432","VisuAL2_search_sk","2023.2.3","Win32",60.24096386,NA,NA,NA,NA,NA,NA,NA,"","",NA,NA,NA,NA,NA,79,"ruler",30,"измерить длину предмета",0,0,3,"[0.38520000000000004,0.19353000000000004]",344,157.1999817,1,0,0,1.1079,1,"target","[0.38520000000000004,0.19353000000000004]",11,NA,11,0,1,NA,0
"260",4,"m",18,"fl","2024-05-08_23h49.23.432","VisuAL2_search_sk","2023.2.3","Win32",60.24096386,NA,NA,NA,NA,NA,NA,NA,"","",NA,NA,NA,NA,NA,4,"phone",28,"сделать телефонный звонок",1,1,1,"[0.19167,-0.19167]",193.6000366,-132.4000244,1,0,0,1.2238,1,"target","[0.19167,-0.19167]",13,NA,13,0,1,NA,0
"261",4,"m",18,"fl","2024-05-08_23h49.23.432","VisuAL2_search_sk","2023.2.3","Win32",60.24096386,NA,NA,NA,NA,NA,NA,NA,"","",NA,NA,NA,NA,NA,47,"bank",3,"узнать курс доллара и купить его",0,1,2,"[0.09723000000000004,0.09723000000000004]",59.20001221,106.7999878,1,0,0,5.0993,1,"target","[0.09723000000000004,0.09723000000000004]",14,NA,14,0,1,NA,0
"262",4,"m",18,"fl","2024-05-08_23h49.23.432","VisuAL2_search_sk","2023.2.3","Win32",60.24096386,NA,NA,NA,NA,NA,NA,NA,"","",NA,NA,NA,NA,NA,0,"settings",31,"изменить настройки устройства",1,1,1,"[-0.19167,0.19167]",-162.3999634,166.7999878,1,0,0,1.2106,1,"target","[-0.19167,0.19167]",15,NA,15,0,1,NA,0
"263",4,"m",18,"fl","2024-05-08_23h49.23.432","VisuAL2_search_sk","2023.2.3","Win32",60.24096386,NA,NA,NA,NA,NA,NA,NA,"","",NA,NA,NA,NA,NA,49,"wAL2let",39,"посмотреть свои скидочные и дебетовые карты",0,0,2,"[-0.28611,0.28890000000000005]",-238.3999634,207.5999908,1,0,0,4.6544,1,"target","[-0.28611,0.28890000000000005]",16,NA,16,0,1,NA,0
"264",4,"m",18,"fl","2024-05-08_23h49.23.432","VisuAL2_search_sk","2023.2.3","Win32",60.24096386,NA,NA,NA,NA,NA,NA,NA,"","",NA,NA,NA,NA,NA,51,"files",17,"открыть файл, хранящийся на устройстве",0,1,2,"[-0.09443999999999997,-0.09443999999999997]",-80,-102,1,0,0,2.5355,1,"target","[-0.09443999999999997,-0.09443999999999997]",17,NA,17,0,1,NA,0
"265",4,"m",18,"fl","2024-05-08_23h49.23.432","VisuAL2_search_sk","2023.2.3","Win32",60.24096386,NA,NA,NA,NA,NA,NA,NA,"","",NA,NA,NA,NA,NA,10,"notebook",26,"сделать заметку",1,0,1,"[-0.19167,-0.19167]",-141.5999756,-159.6000366,1,0,0,1.9102,1,"target","[-0.19167,-0.19167]",18,NA,18,0,1,NA,0
"266",4,"m",18,"fl","2024-05-08_23h49.23.432","VisuAL2_search_sk","2023.2.3","Win32",60.24096386,NA,NA,NA,NA,NA,NA,NA,"","",NA,NA,NA,NA,NA,27,"wAL2let",39,"посмотреть свои скидочные и дебетовые карты",0,0,1,"[0.19167,0]",172,-17.20001221,1,0,0,1.1407,1,"target","[0.19167,0]",19,NA,19,0,1,NA,0
"267",4,"m",18,"fl","2024-05-08_23h49.23.432","VisuAL2_search_sk","2023.2.3","Win32",60.24096386,NA,NA,NA,NA,NA,NA,NA,"","",NA,NA,NA,NA,NA,24,"browser",5,"выйти в интернет",0,1,1,"[-0.19167,0.19167]",-158.3999634,172.3999939,1,0,0,1.525,1,"target","[-0.19167,0.19167]",20,NA,20,0,1,NA,0
"268",4,"m",18,"fl","2024-05-08_23h49.23.432","VisuAL2_search_sk","2023.2.3","Win32",60.24096386,NA,NA,NA,NA,NA,NA,NA,"","",NA,NA,NA,NA,NA,22,"store",33,"совершить заказ в продуктовом магазине",0,0,1,"[0,0]",-15.20001221,-2.800018311,1,0,0,1.1237,1,"target","[0,0]",21,NA,21,0,1,NA,0
"269",4,"m",18,"fl","2024-05-08_23h49.23.432","VisuAL2_search_sk","2023.2.3","Win32",60.24096386,NA,NA,NA,NA,NA,NA,NA,"","",NA,NA,NA,NA,NA,32,"camera",8,"сделать фотоснимок",1,1,2,"[0.28890000000000005,-0.28611]",243.2000122,-257.2000122,1,0,0,2.408,1,"target","[0.28890000000000005,-0.28611]",22,NA,22,0,1,NA,0
"270",4,"m",18,"fl","2024-05-08_23h49.23.432","VisuAL2_search_sk","2023.2.3","Win32",60.24096386,NA,NA,NA,NA,NA,NA,NA,"","",NA,NA,NA,NA,NA,41,"maps",22,"узнать, где находится ближайший продуктовый магазин",1,1,2,"[0.28890000000000005,-0.09443999999999997]",285.5999756,-73.20001221,1,0,0,2.9081,1,"target","[0.28890000000000005,-0.09443999999999997]",23,NA,23,0,1,NA,0
"271",4,"m",18,"fl","2024-05-08_23h49.23.432","VisuAL2_search_sk","2023.2.3","Win32",60.24096386,NA,NA,NA,NA,NA,NA,NA,"","",NA,NA,NA,NA,NA,57,"browser",5,"выйти в интернет",0,1,2,"[-0.09443999999999997,-0.09443999999999997]",-81.59997559,-101.2000122,1,0,0,1.491,1,"target","[-0.09443999999999997,-0.09443999999999997]",24,NA,24,0,1,NA,0
"272",4,"m",18,"fl","2024-05-08_23h49.23.432","VisuAL2_search_sk","2023.2.3","Win32",60.24096386,NA,NA,NA,NA,NA,NA,NA,"","",NA,NA,NA,NA,NA,33,"cAL2endar",7,"узнать на какой день недели выпадает мой день рождения",1,1,2,"[0.09723000000000004,-0.09443999999999997]",85.60003662,-90,1,0,0,1.1588,1,"target","[0.09723000000000004,-0.09443999999999997]",25,NA,25,0,1,NA,0
"273",4,"m",18,"fl","2024-05-08_23h49.23.432","VisuAL2_search_sk","2023.2.3","Win32",60.24096386,NA,NA,NA,NA,NA,NA,NA,"","",NA,NA,NA,NA,NA,37,"cAL2culator",6,"разделить число на 3",1,1,2,"[0.09723000000000004,-0.28611]",67.20001221,-282,1,0,0,1.3897,1,"target","[0.09723000000000004,-0.28611]",27,NA,27,0,1,NA,0
"274",4,"m",18,"fl","2024-05-08_23h49.23.432","VisuAL2_search_sk","2023.2.3","Win32",60.24096386,NA,NA,NA,NA,NA,NA,NA,"","",NA,NA,NA,NA,NA,63,"notebook",26,"сделать заметку",1,0,3,"[0.38520000000000004,-0.18980999999999998]",343.2000732,-154.7999878,1,0,0,1.4056,1,"target","[0.38520000000000004,-0.18980999999999998]",28,NA,28,0,1,NA,0
"275",4,"m",18,"fl","2024-05-08_23h49.23.432","VisuAL2_search_sk","2023.2.3","Win32",60.24096386,NA,NA,NA,NA,NA,NA,NA,"","",NA,NA,NA,NA,NA,25,"files",17,"открыть файл, хранящийся на устройстве",0,1,1,"[-0.19167,-0.19167]",-155.2000122,-177.2000122,1,0,0,1.4043,1,"target","[-0.19167,-0.19167]",29,NA,29,0,1,NA,0
"276",4,"m",18,"fl","2024-05-08_23h49.23.432","VisuAL2_search_sk","2023.2.3","Win32",60.24096386,NA,NA,NA,NA,NA,NA,NA,"","",NA,NA,NA,NA,NA,35,"phone",28,"сделать телефонный звонок",1,1,2,"[0.09723000000000004,-0.09443999999999997]",100,-93.20001221,1,0,0,0.6772,1,"target","[0.09723000000000004,-0.09443999999999997]",30,NA,30,0,1,NA,0
"277",4,"m",18,"fl","2024-05-08_23h49.23.432","VisuAL2_search_sk","2023.2.3","Win32",60.24096386,NA,NA,NA,NA,NA,NA,NA,"","",NA,NA,NA,NA,NA,67,"settings",31,"изменить настройки устройства",1,1,3,"[0.0018600000000000283,0.38520000000000004]",-3.200012207,297.1999969,1,0,0,3.4062,1,"target","[0.0018600000000000283,0.38520000000000004]",31,NA,31,0,1,NA,0
"278",4,"m",18,"fl","2024-05-08_23h49.23.432","VisuAL2_search_sk","2023.2.3","Win32",60.24096386,NA,NA,NA,NA,NA,NA,NA,"","",NA,NA,NA,NA,NA,53,"metro",24,"открыть схему линий метро",0,0,2,"[0.28890000000000005,0.28890000000000005]",265.5999756,254.8000031,1,0,0,4.5243,1,"target","[0.28890000000000005,0.28890000000000005]",32,NA,32,0,1,NA,0
"279",4,"m",18,"fl","2024-05-08_23h49.23.432","VisuAL2_search_sk","2023.2.3","Win32",60.24096386,NA,NA,NA,NA,NA,NA,NA,"","",NA,NA,NA,NA,NA,58,"air",1,"приобрести билеты на самолет",0,0,2,"[0.28890000000000005,0.28890000000000005]",252.7999878,243.5999908,1,0,0,1.6909,1,"target","[0.28890000000000005,0.28890000000000005]",33,NA,33,0,1,NA,0
"280",4,"m",18,"fl","2024-05-08_23h49.23.432","VisuAL2_search_sk","2023.2.3","Win32",60.24096386,NA,NA,NA,NA,NA,NA,NA,"","",NA,NA,NA,NA,NA,74,"gAL2lery",19,"посмотреть сделанные фотографии",1,1,3,"[-0.18980999999999998,-0.38148]",-162.3999634,-322.7999878,1,0,0,1.5897,1,"target","[-0.18980999999999998,-0.38148]",34,NA,34,0,1,NA,0
"281",4,"m",18,"fl","2024-05-08_23h49.23.432","VisuAL2_search_sk","2023.2.3","Win32",60.24096386,NA,NA,NA,NA,NA,NA,NA,"","",NA,NA,NA,NA,NA,45,"editor",15,"отредактировать фото",0,0,2,"[0.28890000000000005,0.09723000000000004]",256,93.19998169,1,0,0,2.7325,1,"target","[0.28890000000000005,0.09723000000000004]",35,NA,35,0,1,NA,0
"282",4,"m",18,"fl","2024-05-08_23h49.23.432","VisuAL2_search_sk","2023.2.3","Win32",60.24096386,NA,NA,NA,NA,NA,NA,NA,"","",NA,NA,NA,NA,NA,50,"download",14,"открыть скачанный файл",0,0,2,"[-0.28611,0.09723000000000004]",-238.3999634,92.3999939,1,0,0,3.5735,1,"target","[-0.28611,0.09723000000000004]",36,NA,36,0,1,NA,0
"283",4,"m",18,"fl","2024-05-08_23h49.23.432","VisuAL2_search_sk","2023.2.3","Win32",60.24096386,NA,NA,NA,NA,NA,NA,NA,"","",NA,NA,NA,NA,NA,12,"train",36,"приобрести билеты на поезд",1,0,1,"[0,0.19167]",25.60003662,166.7999878,1,0,0,1.4945,1,"target","[0,0.19167]",37,NA,37,0,1,NA,0
"284",4,"m",18,"fl","2024-05-08_23h49.23.432","VisuAL2_search_sk","2023.2.3","Win32",60.24096386,NA,NA,NA,NA,NA,NA,NA,"","",NA,NA,NA,NA,NA,23,"bank",3,"узнать курс доллара и купить его",0,1,1,"[0,0.19167]",-3.200012207,159.6000061,1,0,0,1.5428,1,"target","[0,0.19167]",38,NA,38,0,1,NA,0
"285",4,"m",18,"fl","2024-05-08_23h49.23.432","VisuAL2_search_sk","2023.2.3","Win32",60.24096386,NA,NA,NA,NA,NA,NA,NA,"","",NA,NA,NA,NA,NA,42,"notebook",26,"сделать заметку",1,0,2,"[-0.28611,-0.09443999999999997]",-207.2000122,-67.6000061,1,0,0,4.958,1,"target","[-0.28611,-0.09443999999999997]",39,NA,39,0,1,NA,0
"286",4,"m",18,"fl","2024-05-08_23h49.23.432","VisuAL2_search_sk","2023.2.3","Win32",60.24096386,NA,NA,NA,NA,NA,NA,NA,"","",NA,NA,NA,NA,NA,26,"metro",24,"открыть схему линий метро",0,0,1,"[-0.19167,0.19167]",-166.3999634,182,1,0,0,1.0262,1,"target","[-0.19167,0.19167]",40,NA,40,0,1,NA,0
"287",4,"m",18,"fl","2024-05-08_23h49.23.432","VisuAL2_search_sk","2023.2.3","Win32",60.24096386,NA,NA,NA,NA,NA,NA,NA,"","",NA,NA,NA,NA,NA,31,"train",36,"приобрести билеты на поезд",1,0,2,"[-0.28611,-0.09443999999999997]",-248.7999878,-83.60003662,1,0,0,2.3877,1,"target","[-0.28611,-0.09443999999999997]",41,NA,41,0,1,NA,0
"288",4,"m",18,"fl","2024-05-08_23h49.23.432","VisuAL2_search_sk","2023.2.3","Win32",60.24096386,NA,NA,NA,NA,NA,NA,NA,"","",NA,NA,NA,NA,NA,68,"phone",28,"сделать телефонный звонок",1,1,3,"[-0.18980999999999998,0.38520000000000004]",-160,320.4000015,1,0,0,1.6369,1,"target","[-0.18980999999999998,0.38520000000000004]",42,NA,42,0,1,NA,0
"289",4,"m",18,"fl","2024-05-08_23h49.23.432","VisuAL2_search_sk","2023.2.3","Win32",60.24096386,NA,NA,NA,NA,NA,NA,NA,"","",NA,NA,NA,NA,NA,15,"dictaphone",12,"записать свой голос",0,0,1,"[0.19167,0.19167]",184,179.5999908,1,0,0,1.0958,1,"target","[0.19167,0.19167]",43,NA,43,0,1,NA,0
"290",4,"m",18,"fl","2024-05-08_23h49.23.432","VisuAL2_search_sk","2023.2.3","Win32",60.24096386,NA,NA,NA,NA,NA,NA,NA,"","",NA,NA,NA,NA,NA,14,"music",25,"послушать музыку",1,1,1,"[0,0.19167]",-18.39996338,150.7999878,1,0,0,1.3441,1,"target","[0,0.19167]",44,NA,44,0,1,NA,0
"291",4,"m",18,"fl","2024-05-08_23h49.23.432","VisuAL2_search_sk","2023.2.3","Win32",60.24096386,NA,NA,NA,NA,NA,NA,NA,"","",NA,NA,NA,NA,NA,6,"contacts",11,"найти номер телефона коллеги",1,0,1,"[0,0.19167]",4,170,1,0,0,3.6703,1,"target","[0,0.19167]",45,NA,45,0,1,NA,0
"292",4,"m",18,"fl","2024-05-08_23h49.23.432","VisuAL2_search_sk","2023.2.3","Win32",60.24096386,NA,NA,NA,NA,NA,NA,NA,"","",NA,NA,NA,NA,NA,73,"camera",8,"сделать фотоснимок",1,1,3,"[0.38520000000000004,-0.18980999999999998]",319.2000732,-168.4000244,1,0,0,2.1882,1,"target","[0.38520000000000004,-0.18980999999999998]",46,NA,46,0,1,NA,0
"293",4,"m",18,"fl","2024-05-08_23h49.23.432","VisuAL2_search_sk","2023.2.3","Win32",60.24096386,NA,NA,NA,NA,NA,NA,NA,"","",NA,NA,NA,NA,NA,36,"taxi",34,"заказать такси",1,0,2,"[-0.09443999999999997,0.28890000000000005]",-95.20001221,251.5999908,1,0,0,3.7056,1,"target","[-0.09443999999999997,0.28890000000000005]",47,NA,47,0,1,NA,0
"294",4,"m",18,"fl","2024-05-08_23h49.23.432","VisuAL2_search_sk","2023.2.3","Win32",60.24096386,NA,NA,NA,NA,NA,NA,NA,"","",NA,NA,NA,NA,NA,28,"planner",29,"создать маркированный список планов на день",0,0,1,"[0,-0.19167]",3.200012207,-156.4000244,1,0,0,1.1723,1,"target","[0,-0.19167]",48,NA,48,0,1,NA,0
"295",4,"m",18,"fl","2024-05-08_23h49.23.432","VisuAL2_search_sk","2023.2.3","Win32",60.24096386,NA,NA,NA,NA,NA,NA,NA,"","",NA,NA,NA,NA,NA,3,"camera",8,"сделать фотоснимок",1,1,1,"[-0.19167,0]",-157.5999756,-8.399993896,1,0,0,2.7919,1,"target","[-0.19167,0]",49,NA,49,0,1,NA,0
"296",4,"m",18,"fl","2024-05-08_23h49.23.432","VisuAL2_search_sk","2023.2.3","Win32",60.24096386,NA,NA,NA,NA,NA,NA,NA,"","",NA,NA,NA,NA,NA,11,"cAL2culator",6,"разделить число на 3",1,1,1,"[0.19167,0]",153.6000366,-16.3999939,1,0,0,0.992,1,"target","[0.19167,0]",50,NA,50,0,1,NA,0
"297",4,"m",18,"fl","2024-05-08_23h49.23.432","VisuAL2_search_sk","2023.2.3","Win32",60.24096386,NA,NA,NA,NA,NA,NA,NA,"","",NA,NA,NA,NA,NA,65,"cAL2culator",6,"разделить число на 3",1,1,3,"[-0.38148,-0.38148]",-339.1999817,-349.2000122,1,0,0,1.7438,1,"target","[-0.38148,-0.38148]",51,NA,51,0,1,NA,0
"298",4,"m",18,"fl","2024-05-08_23h49.23.432","VisuAL2_search_sk","2023.2.3","Win32",60.24096386,NA,NA,NA,NA,NA,NA,NA,"","",NA,NA,NA,NA,NA,1,"time",35,"посмотреть, сколько времени во Владивостоке",1,1,1,"[0.19167,-0.19167]",159.2000122,-167.6000366,1,0,0,1.4575,1,"target","[0.19167,-0.19167]",52,NA,52,0,1,NA,0
"299",4,"m",18,"fl","2024-05-08_23h49.23.432","VisuAL2_search_sk","2023.2.3","Win32",60.24096386,NA,NA,NA,NA,NA,NA,NA,"","",NA,NA,NA,NA,NA,59,"ruler",30,"измерить длину предмета",0,0,2,"[0.28890000000000005,0.28890000000000005]",222.4000244,258,1,0,0,1.0077,1,"target","[0.28890000000000005,0.28890000000000005]",54,NA,54,0,1,NA,0
"300",4,"m",18,"fl","2024-05-08_23h49.23.432","VisuAL2_search_sk","2023.2.3","Win32",60.24096386,NA,NA,NA,NA,NA,NA,NA,"","",NA,NA,NA,NA,NA,18,"compass",10,"узнать, в какой стороне света Юг",0,0,1,"[-0.19167,0.19167]",-157.5999756,161.1999817,1,0,0,2.6079,1,"target","[-0.19167,0.19167]",55,NA,55,0,1,NA,0
"301",4,"m",18,"fl","2024-05-08_23h49.23.432","VisuAL2_search_sk","2023.2.3","Win32",60.24096386,NA,NA,NA,NA,NA,NA,NA,"","",NA,NA,NA,NA,NA,70,"cAL2endar",7,"узнать на какой день недели выпадает мой день рождения",1,1,3,"[0.0018600000000000283,0.0018600000000000283]",13.60003662,-2.800018311,1,0,0,1.1245,1,"target","[0.0018600000000000283,0.0018600000000000283]",57,NA,57,0,1,NA,0
"302",4,"m",18,"fl","2024-05-08_23h49.23.432","VisuAL2_search_sk","2023.2.3","Win32",60.24096386,NA,NA,NA,NA,NA,NA,NA,"","",NA,NA,NA,NA,NA,30,"time",35,"посмотреть, сколько времени во Владивостоке",1,1,2,"[-0.28611,-0.09443999999999997]",-240,-73.20001221,1,0,0,2.2615,1,"target","[-0.28611,-0.09443999999999997]",58,NA,58,0,1,NA,0
"303",4,"m",18,"fl","2024-05-08_23h49.23.432","VisuAL2_search_sk","2023.2.3","Win32",60.24096386,NA,NA,NA,NA,NA,NA,NA,"","",NA,NA,NA,NA,NA,40,"messager",23,"отправить сообщение",1,1,2,"[0.28890000000000005,0.28890000000000005]",235.2000122,239.5999908,1,0,0,1.888,1,"target","[0.28890000000000005,0.28890000000000005]",59,NA,59,0,1,NA,0
"304",4,"m",18,"fl","2024-05-08_23h49.23.432","VisuAL2_search_sk","2023.2.3","Win32",60.24096386,NA,NA,NA,NA,NA,NA,NA,"","",NA,NA,NA,NA,NA,39,"contacts",11,"найти номер телефона коллеги",1,0,2,"[0.09723000000000004,0.28890000000000005]",107.2000122,241.1999969,1,0,0,1.2926,1,"target","[0.09723000000000004,0.28890000000000005]",60,NA,60,0,1,NA,0
"305",4,"m",18,"fl","2024-05-08_23h49.23.432","VisuAL2_search_sk","2023.2.3","Win32",60.24096386,NA,NA,NA,NA,NA,NA,NA,"","",NA,NA,NA,NA,NA,64,"taxi",34,"заказать такси",1,0,3,"[-0.18980999999999998,-0.18980999999999998]",-178.3999634,-173.2000122,1,0,0,2.2554,1,"target","[-0.18980999999999998,-0.18980999999999998]",61,NA,61,0,1,NA,0
"306",4,"m",18,"fl","2024-05-08_23h49.23.432","VisuAL2_search_sk","2023.2.3","Win32",60.24096386,NA,NA,NA,NA,NA,NA,NA,"","",NA,NA,NA,NA,NA,66,"train",36,"приобрести билеты на поезд",1,0,3,"[0.19353000000000004,-0.38148]",172.7999878,-347.6000366,1,0,0,1.8895,1,"target","[0.19353000000000004,-0.38148]",62,NA,62,0,1,NA,0
"307",4,"m",18,"fl","2024-05-08_23h49.23.432","VisuAL2_search_sk","2023.2.3","Win32",60.24096386,NA,NA,NA,NA,NA,NA,NA,"","",NA,NA,NA,NA,NA,48,"planner",29,"создать маркированный список планов на день",0,0,2,"[0.28890000000000005,0.28890000000000005]",252,250.8000031,1,0,0,3.0721,1,"target","[0.28890000000000005,0.28890000000000005]",65,NA,65,0,1,NA,0
"308",4,"m",18,"fl","2024-05-08_23h49.23.432","VisuAL2_search_sk","2023.2.3","Win32",60.24096386,NA,NA,NA,NA,NA,NA,NA,"","",NA,NA,NA,NA,NA,46,"compass",10,"узнать, в какой стороне света Юг",0,0,2,"[-0.28611,0.28890000000000005]",-245.5999756,254.8000031,1,0,0,2.9216,1,"target","[-0.28611,0.28890000000000005]",66,NA,66,0,1,NA,0
"309",4,"m",18,"fl","2024-05-08_23h49.23.432","VisuAL2_search_sk","2023.2.3","Win32",60.24096386,NA,NA,NA,NA,NA,NA,NA,"","",NA,NA,NA,NA,NA,89,"wAL2let",39,"посмотреть свои скидочные и дебетовые карты",0,0,3,"[-0.18980999999999998,0.38520000000000004]",-155.2000122,310.7999954,1,0,0,1.1069,1,"target","[-0.18980999999999998,0.38520000000000004]",68,NA,68,0,1,NA,0
"310",4,"m",18,"fl","2024-05-08_23h49.23.432","VisuAL2_search_sk","2023.2.3","Win32",60.24096386,NA,NA,NA,NA,NA,NA,NA,"","",NA,NA,NA,NA,NA,9,"taxi",34,"заказать такси",1,0,1,"[0.19167,-0.19167]",194.4000244,-168.4000244,1,0,0,1.1085,1,"target","[0.19167,-0.19167]",69,NA,69,0,1,NA,0
"311",4,"m",18,"fl","2024-05-08_23h49.23.432","VisuAL2_search_sk","2023.2.3","Win32",60.24096386,NA,NA,NA,NA,NA,NA,NA,"","",NA,NA,NA,NA,NA,20,"translator",37,"перевести текст",0,1,1,"[0.19167,0]",160,13.19998169,1,0,0,2.225,1,"target","[0.19167,0]",70,NA,70,0,1,NA,0
"312",4,"m",18,"fl","2024-05-08_23h49.23.432","VisuAL2_search_sk","2023.2.3","Win32",60.24096386,NA,NA,NA,NA,NA,NA,NA,"","",NA,NA,NA,NA,NA,21,"book",4,"почитать сохраненную книгу",0,0,1,"[-0.19167,-0.19167]",-148.7999878,-159.6000366,1,0,0,1.2574,1,"target","[-0.19167,-0.19167]",71,NA,71,0,1,NA,0
"313",4,"m",18,"fl","2024-05-08_23h49.23.432","VisuAL2_search_sk","2023.2.3","Win32",60.24096386,NA,NA,NA,NA,NA,NA,NA,"","",NA,NA,NA,NA,NA,82,"translator",37,"перевести текст",0,1,3,"[-0.18980999999999998,0.0018600000000000283]",-160,-22,1,0,0,1.3407,1,"target","[-0.18980999999999998,0.0018600000000000283]",72,NA,72,0,1,NA,0
"314",4,"m",18,"fl","2024-05-08_23h49.23.432","VisuAL2_search_sk","2023.2.3","Win32",60.24096386,NA,NA,NA,NA,NA,NA,NA,"","",NA,NA,NA,NA,NA,85,"browser",5,"выйти в интернет",0,1,3,"[0.19353000000000004,0.0018600000000000283]",172.7999878,12.3999939,1,0,0,1.0407,1,"target","[0.19353000000000004,0.0018600000000000283]",73,NA,73,0,1,NA,0
